time,.Header.seq,.Header.stamp.secs,.Header.stamp.nsecs,.Header.frame_id,.IMU.header.seq,.IMU.header.stamp.secs,.IMU.header.stamp.nsecs,.IMU.header.frame_id,.IMU.orientation.x,.IMU.orientation.y,.IMU.orientation.z,.IMU.orientation.w,.IMU.orientation_covariance,.IMU.angular_velocity.x,.IMU.angular_velocity.y,.IMU.angular_velocity.z,.IMU.angular_velocity_covariance,.IMU.linear_acceleration.x,.IMU.linear_acceleration.y,.IMU.linear_acceleration.z,.IMU.linear_acceleration_covariance,.MagField.header.seq,.MagField.header.stamp.secs,.MagField.header.stamp.nsecs,.MagField.header.frame_id,.MagField.magnetic_field.x,.MagField.magnetic_field.y,.MagField.magnetic_field.z,.MagField.magnetic_field_covariance,.VNYMR
2023/03/05/23:40:28.930127,0,1678077624,147241353,imu1_frame,0,0,0,,0.00428722687238,-0.014207844106253417,0.05325229736577603,0.9984708056207072,"(0.0, 0.0, 0.0, 0.0, 0.0, 0.0, 0.0, 0.0, 0.0)",0.001167,0.004058,0.001044,"(0.0, 0.0, 0.0, 0.0, 0.0, 0.0, 0.0, 0.0, 0.0)",-0.229,0.062,-10.325,"(0.0, 0.0, 0.0, 0.0, 0.0, 0.0, 0.0, 0.0, 0.0)",0,0,0,,0.5419,-0.0759,0.3938,"(0.0, 0.0, 0.0, 0.0, 0.0, 0.0, 0.0, 0.0, 0.0)","b'$VNYMR,+006.100,-001.652,+000.404,+00.5419,-00.0759,+00.3938,-00.229,+00.062,-10.325,+00.001167,+00.004058,+00.001044*6B\r\n'"
2023/03/05/23:40:28.954850,0,1678077624,147241353,imu1_frame,0,0,0,,0.004288494140310505,-0.014234021572252216,0.05324365612510798,0.9984708881736715,"(0.0, 0.0, 0.0, 0.0, 0.0, 0.0, 0.0, 0.0, 0.0)",0.000386,-0.000388,-0.000123,"(0.0, 0.0, 0.0, 0.0, 0.0, 0.0, 0.0, 0.0, 0.0)",-0.322,-0.058,-10.271,"(0.0, 0.0, 0.0, 0.0, 0.0, 0.0, 0.0, 0.0, 0.0)",0,0,0,,0.5408,-0.076,0.3887,"(0.0, 0.0, 0.0, 0.0, 0.0, 0.0, 0.0, 0.0, 0.0)","b'$VNYMR,+006.099,-001.655,+000.404,+00.5408,-00.0760,+00.3887,-00.322,-00.058,-10.271,+00.000386,-00.000388,-00.000123*60\r\n'"
2023/03/05/23:40:28.980324,0,1678077624,147241353,imu1_frame,0,0,0,,0.004297116096248369,-0.014224731089946594,0.05326989613624035,0.9984695839054429,"(0.0, 0.0, 0.0, 0.0, 0.0, 0.0, 0.0, 0.0, 0.0)",0.000448,0.001341,-0.001148,"(0.0, 0.0, 0.0, 0.0, 0.0, 0.0, 0.0, 0.0, 0.0)",-0.307,-0.095,-10.301,"(0.0, 0.0, 0.0, 0.0, 0.0, 0.0, 0.0, 0.0, 0.0)",0,0,0,,0.5408,-0.0759,0.3912,"(0.0, 0.0, 0.0, 0.0, 0.0, 0.0, 0.0, 0.0, 0.0)","b'$VNYMR,+006.102,-001.654,+000.405,+00.5408,-00.0759,+00.3912,-00.307,-00.095,-10.301,+00.000448,+00.001341,-00.001148*6F\r\n'"
2023/03/05/23:40:29.005325,0,1678077624,147241353,imu1_frame,0,0,0,,0.004296776175598498,-0.014215980255253356,0.053278585332519605,0.9984692463790983,"(0.0, 0.0, 0.0, 0.0, 0.0, 0.0, 0.0, 0.0, 0.0)",0.000334,0.002176,-0.000894,"(0.0, 0.0, 0.0, 0.0, 0.0, 0.0, 0.0, 0.0, 0.0)",-0.286,-0.058,-10.318,"(0.0, 0.0, 0.0, 0.0, 0.0, 0.0, 0.0, 0.0, 0.0)",0,0,0,,0.5408,-0.0748,0.3886,"(0.0, 0.0, 0.0, 0.0, 0.0, 0.0, 0.0, 0.0, 0.0)","b'$VNYMR,+006.103,-001.653,+000.405,+00.5408,-00.0748,+00.3886,-00.286,-00.058,-10.318,+00.000334,+00.002176,-00.000894*64\r\n'"
2023/03/05/23:40:29.029908,0,1678077624,147241353,imu1_frame,0,0,0,,0.004288435071715804,-0.01421633293198371,0.05330460111912325,0.9984678886685009,"(0.0, 0.0, 0.0, 0.0, 0.0, 0.0, 0.0, 0.0, 0.0)",-0.000583,0.001577,0.000917,"(0.0, 0.0, 0.0, 0.0, 0.0, 0.0, 0.0, 0.0, 0.0)",-0.289,-0.09,-10.318,"(0.0, 0.0, 0.0, 0.0, 0.0, 0.0, 0.0, 0.0, 0.0)",0,0,0,,0.5419,-0.0748,0.3925,"(0.0, 0.0, 0.0, 0.0, 0.0, 0.0, 0.0, 0.0, 0.0)","b'$VNYMR,+006.106,-001.653,+000.404,+00.5419,-00.0748,+00.3925,-00.289,-00.090,-10.318,-00.000583,+00.001577,+00.000917*65\r\n'"
2023/03/05/23:40:29.055212,0,1678077624,147241353,imu1_frame,0,0,0,,0.004287722817086499,-0.014207694445148128,0.05328715053941204,0.9984689461565579,"(0.0, 0.0, 0.0, 0.0, 0.0, 0.0, 0.0, 0.0, 0.0)",-0.00041,0.002075,0.000286,"(0.0, 0.0, 0.0, 0.0, 0.0, 0.0, 0.0, 0.0, 0.0)",-0.306,-0.071,-10.278,"(0.0, 0.0, 0.0, 0.0, 0.0, 0.0, 0.0, 0.0, 0.0)",0,0,0,,0.5419,-0.0772,0.3875,"(0.0, 0.0, 0.0, 0.0, 0.0, 0.0, 0.0, 0.0, 0.0)","b'$VNYMR,+006.104,-001.652,+000.404,+00.5419,-00.0772,+00.3875,-00.306,-00.071,-10.278,-00.000410,+00.002075,+00.000286*69\r\n'"
2023/03/05/23:40:29.080499,0,1678077624,147241353,imu1_frame,0,0,0,,0.0042793814989071435,-0.014208047433643468,0.05331316639045788,0.9984675881427165,"(0.0, 0.0, 0.0, 0.0, 0.0, 0.0, 0.0, 0.0, 0.0)",0.000439,0.002564,0.001212,"(0.0, 0.0, 0.0, 0.0, 0.0, 0.0, 0.0, 0.0, 0.0)",-0.322,-0.068,-10.319,"(0.0, 0.0, 0.0, 0.0, 0.0, 0.0, 0.0, 0.0, 0.0)",0,0,0,,0.5442,-0.0736,0.3913,"(0.0, 0.0, 0.0, 0.0, 0.0, 0.0, 0.0, 0.0, 0.0)","b'$VNYMR,+006.107,-001.652,+000.403,+00.5442,-00.0736,+00.3913,-00.322,-00.068,-10.319,+00.000439,+00.002564,+00.001212*6E\r\n'"
2023/03/05/23:40:29.128167,0,1678077624,147241353,imu1_frame,0,0,0,,0.00427959773035533,-0.014216835448917246,0.05329576377776278,0.9984683911854344,"(0.0, 0.0, 0.0, 0.0, 0.0, 0.0, 0.0, 0.0, 0.0)",6e-06,0.001539,0.001142,"(0.0, 0.0, 0.0, 0.0, 0.0, 0.0, 0.0, 0.0, 0.0)",-0.306,-0.088,-10.268,"(0.0, 0.0, 0.0, 0.0, 0.0, 0.0, 0.0, 0.0, 0.0)",0,0,0,,0.5442,-0.0643,0.3887,"(0.0, 0.0, 0.0, 0.0, 0.0, 0.0, 0.0, 0.0, 0.0)","b'$VNYMR,+006.105,-001.653,+000.403,+00.5442,-00.0643,+00.3887,-00.306,-00.088,-10.268,+00.000006,+00.001539,+00.001142*68\r\n'"
2023/03/05/23:40:29.176189,0,1678077624,147241353,imu1_frame,0,0,0,,0.00427959773035533,-0.014216835448917246,0.05329576377776278,0.9984683911854344,"(0.0, 0.0, 0.0, 0.0, 0.0, 0.0, 0.0, 0.0, 0.0)",0.000224,0.002433,0.000503,"(0.0, 0.0, 0.0, 0.0, 0.0, 0.0, 0.0, 0.0, 0.0)",-0.296,-0.084,-10.304,"(0.0, 0.0, 0.0, 0.0, 0.0, 0.0, 0.0, 0.0, 0.0)",0,0,0,,0.543,-0.0748,0.39,"(0.0, 0.0, 0.0, 0.0, 0.0, 0.0, 0.0, 0.0, 0.0)","b'$VNYMR,+006.105,-001.653,+000.403,+00.5430,-00.0748,+00.3900,-00.296,-00.084,-10.304,+00.000224,+00.002433,+00.000503*6C\r\n'"
2023/03/05/23:40:29.176237,0,1678077624,147241353,imu1_frame,0,0,0,,0.004288526943314577,-0.014225158533028881,0.05327848528917414,0.9984691564623607,"(0.0, 0.0, 0.0, 0.0, 0.0, 0.0, 0.0, 0.0, 0.0)",-0.0013,0.002601,0.000227,"(0.0, 0.0, 0.0, 0.0, 0.0, 0.0, 0.0, 0.0, 0.0)",-0.296,-0.074,-10.286,"(0.0, 0.0, 0.0, 0.0, 0.0, 0.0, 0.0, 0.0, 0.0)",0,0,0,,0.543,-0.0783,0.3939,"(0.0, 0.0, 0.0, 0.0, 0.0, 0.0, 0.0, 0.0, 0.0)","b'$VNYMR,+006.103,-001.654,+000.404,+00.5430,-00.0783,+00.3939,-00.296,-00.074,-10.286,-00.001300,+00.002601,+00.000227*61\r\n'"
2023/03/05/23:40:29.224256,0,1678077624,147241353,imu1_frame,0,0,0,,0.004287722817086499,-0.014207694445148128,0.05328715053941204,0.9984689461565579,"(0.0, 0.0, 0.0, 0.0, 0.0, 0.0, 0.0, 0.0, 0.0)",-0.000376,0.003205,-1.9e-05,"(0.0, 0.0, 0.0, 0.0, 0.0, 0.0, 0.0, 0.0, 0.0)",-0.301,-0.08,-10.316,"(0.0, 0.0, 0.0, 0.0, 0.0, 0.0, 0.0, 0.0, 0.0)",0,0,0,,0.5442,-0.0748,0.3913,"(0.0, 0.0, 0.0, 0.0, 0.0, 0.0, 0.0, 0.0, 0.0)","b'$VNYMR,+006.104,-001.652,+000.404,+00.5442,-00.0748,+00.3913,-00.301,-00.080,-10.316,-00.000376,+00.003205,-00.000019*6E\r\n'"
2023/03/05/23:40:29.224296,0,1678077624,147241353,imu1_frame,0,0,0,,0.004287598831399644,-0.014207731862047424,0.05327843725208845,0.9984694111366519,"(0.0, 0.0, 0.0, 0.0, 0.0, 0.0, 0.0, 0.0, 0.0)",-0.000451,0.002107,0.000382,"(0.0, 0.0, 0.0, 0.0, 0.0, 0.0, 0.0, 0.0, 0.0)",-0.297,-0.062,-10.239,"(0.0, 0.0, 0.0, 0.0, 0.0, 0.0, 0.0, 0.0, 0.0)",0,0,0,,0.5408,-0.0748,0.3924,"(0.0, 0.0, 0.0, 0.0, 0.0, 0.0, 0.0, 0.0, 0.0)","b'$VNYMR,+006.103,-001.652,+000.404,+00.5408,-00.0748,+00.3924,-00.297,-00.062,-10.239,-00.000451,+00.002107,+00.000382*68\r\n'"
2023/03/05/23:40:29.268177,0,1678077624,147241353,imu1_frame,0,0,0,,0.0042799699247703885,-0.014216723404438641,0.05332190360085054,0.9984669955634319,"(0.0, 0.0, 0.0, 0.0, 0.0, 0.0, 0.0, 0.0, 0.0)",-0.00073,0.001949,0.001981,"(0.0, 0.0, 0.0, 0.0, 0.0, 0.0, 0.0, 0.0, 0.0)",-0.288,-0.061,-10.277,"(0.0, 0.0, 0.0, 0.0, 0.0, 0.0, 0.0, 0.0, 0.0)",0,0,0,,0.5419,-0.076,0.3875,"(0.0, 0.0, 0.0, 0.0, 0.0, 0.0, 0.0, 0.0, 0.0)","b'$VNYMR,+006.108,-001.653,+000.403,+00.5419,-00.0760,+00.3875,-00.288,-00.061,-10.277,-00.000730,+00.001949,+00.001981*60\r\n'"
2023/03/05/23:40:29.268237,0,1678077624,147241353,imu1_frame,0,0,0,,0.00427959773035533,-0.014216835448917246,0.05329576377776278,0.9984683911854344,"(0.0, 0.0, 0.0, 0.0, 0.0, 0.0, 0.0, 0.0, 0.0)",-0.000295,0.000305,-0.000234,"(0.0, 0.0, 0.0, 0.0, 0.0, 0.0, 0.0, 0.0, 0.0)",-0.294,-0.059,-10.246,"(0.0, 0.0, 0.0, 0.0, 0.0, 0.0, 0.0, 0.0, 0.0)",0,0,0,,0.5408,-0.0759,0.3937,"(0.0, 0.0, 0.0, 0.0, 0.0, 0.0, 0.0, 0.0, 0.0)","b'$VNYMR,+006.105,-001.653,+000.403,+00.5408,-00.0759,+00.3937,-00.294,-00.059,-10.246,-00.000295,+00.000305,-00.000234*6F\r\n'"
2023/03/05/23:40:29.316170,0,1678077624,147241353,imu1_frame,0,0,0,,0.0042799699247703885,-0.014216723404438641,0.05332190360085054,0.9984669955634319,"(0.0, 0.0, 0.0, 0.0, 0.0, 0.0, 0.0, 0.0, 0.0)",-0.000143,4.4e-05,0.000339,"(0.0, 0.0, 0.0, 0.0, 0.0, 0.0, 0.0, 0.0, 0.0)",-0.276,-0.103,-10.277,"(0.0, 0.0, 0.0, 0.0, 0.0, 0.0, 0.0, 0.0, 0.0)",0,0,0,,0.5408,-0.0736,0.3937,"(0.0, 0.0, 0.0, 0.0, 0.0, 0.0, 0.0, 0.0, 0.0)","b'$VNYMR,+006.108,-001.653,+000.403,+00.5408,-00.0736,+00.3937,-00.276,-00.103,-10.277,-00.000143,+00.000044,+00.000339*6F\r\n'"
2023/03/05/23:40:29.316208,0,1678077624,147241353,imu1_frame,0,0,0,,0.0042799699247703885,-0.014216723404438641,0.05332190360085054,0.9984669955634319,"(0.0, 0.0, 0.0, 0.0, 0.0, 0.0, 0.0, 0.0, 0.0)",-1e-05,7.3e-05,0.000822,"(0.0, 0.0, 0.0, 0.0, 0.0, 0.0, 0.0, 0.0, 0.0)",-0.313,-0.09,-10.251,"(0.0, 0.0, 0.0, 0.0, 0.0, 0.0, 0.0, 0.0, 0.0)",0,0,0,,0.5419,-0.0771,0.39,"(0.0, 0.0, 0.0, 0.0, 0.0, 0.0, 0.0, 0.0, 0.0)","b'$VNYMR,+006.108,-001.653,+000.403,+00.5419,-00.0771,+00.3900,-00.313,-00.090,-10.251,-00.000010,+00.000073,+00.000822*67\r\n'"
2023/03/05/23:40:29.360159,0,1678077624,147241353,imu1_frame,0,0,0,,0.004288683192879847,-0.014216258082506683,0.05332202766313632,0.9984669581756296,"(0.0, 0.0, 0.0, 0.0, 0.0, 0.0, 0.0, 0.0, 0.0)",-0.000389,-0.001641,7.7e-05,"(0.0, 0.0, 0.0, 0.0, 0.0, 0.0, 0.0, 0.0, 0.0)",-0.317,-0.086,-10.285,"(0.0, 0.0, 0.0, 0.0, 0.0, 0.0, 0.0, 0.0, 0.0)",0,0,0,,0.5408,-0.0712,0.3924,"(0.0, 0.0, 0.0, 0.0, 0.0, 0.0, 0.0, 0.0, 0.0)","b'$VNYMR,+006.108,-001.653,+000.404,+00.5408,-00.0712,+00.3924,-00.317,-00.086,-10.285,-00.000389,-00.001641,+00.000077*62\r\n'"
2023/03/05/23:40:29.360201,0,1678077624,147241353,imu1_frame,0,0,0,,0.004288062887520388,-0.014216445198079476,0.05327846127265999,0.9984692838375252,"(0.0, 0.0, 0.0, 0.0, 0.0, 0.0, 0.0, 0.0, 0.0)",0.000579,-0.001372,0.001422,"(0.0, 0.0, 0.0, 0.0, 0.0, 0.0, 0.0, 0.0, 0.0)",-0.318,-0.063,-10.225,"(0.0, 0.0, 0.0, 0.0, 0.0, 0.0, 0.0, 0.0, 0.0)",0,0,0,,0.5419,-0.0654,0.386,"(0.0, 0.0, 0.0, 0.0, 0.0, 0.0, 0.0, 0.0, 0.0)","b'$VNYMR,+006.103,-001.653,+000.404,+00.5419,-00.0654,+00.3860,-00.318,-00.063,-10.225,+00.000579,-00.001372,+00.001422*6A\r\n'"
2023/03/05/23:40:29.404130,0,1678077624,147241353,imu1_frame,0,0,0,,0.004287814763090656,-0.014216520036730103,0.05326103468806311,0.9984702135700192,"(0.0, 0.0, 0.0, 0.0, 0.0, 0.0, 0.0, 0.0, 0.0)",-0.000339,-0.001191,0.000464,"(0.0, 0.0, 0.0, 0.0, 0.0, 0.0, 0.0, 0.0, 0.0)",-0.278,-0.085,-10.268,"(0.0, 0.0, 0.0, 0.0, 0.0, 0.0, 0.0, 0.0, 0.0)",0,0,0,,0.5408,-0.0713,0.3873,"(0.0, 0.0, 0.0, 0.0, 0.0, 0.0, 0.0, 0.0, 0.0)","b'$VNYMR,+006.101,-001.653,+000.404,+00.5408,-00.0713,+00.3873,-00.278,-00.085,-10.268,-00.000339,-00.001191,+00.000464*66\r\n'"
2023/03/05/23:40:29.405116,0,1678077624,147241353,imu1_frame,0,0,0,,0.004287350859046384,-0.014207806692600071,0.05326101066526978,0.9984703408687267,"(0.0, 0.0, 0.0, 0.0, 0.0, 0.0, 0.0, 0.0, 0.0)",-0.000568,-0.00039,5.8e-05,"(0.0, 0.0, 0.0, 0.0, 0.0, 0.0, 0.0, 0.0, 0.0)",-0.304,-0.077,-10.224,"(0.0, 0.0, 0.0, 0.0, 0.0, 0.0, 0.0, 0.0, 0.0)",0,0,0,,0.5396,-0.0701,0.3847,"(0.0, 0.0, 0.0, 0.0, 0.0, 0.0, 0.0, 0.0, 0.0)","b'$VNYMR,+006.101,-001.652,+000.404,+00.5396,-00.0701,+00.3847,-00.304,-00.077,-10.224,-00.000568,-00.000390,+00.000058*67\r\n'"
2023/03/05/23:40:29.448189,0,1678077624,147241353,imu1_frame,0,0,0,,0.004295476346515976,-0.014198666042700786,0.05325239724658004,0.9984708953960836,"(0.0, 0.0, 0.0, 0.0, 0.0, 0.0, 0.0, 0.0, 0.0)",0.000867,-0.001463,0.001002,"(0.0, 0.0, 0.0, 0.0, 0.0, 0.0, 0.0, 0.0, 0.0)",-0.294,-0.088,-10.237,"(0.0, 0.0, 0.0, 0.0, 0.0, 0.0, 0.0, 0.0, 0.0)",0,0,0,,0.5441,-0.0761,0.3825,"(0.0, 0.0, 0.0, 0.0, 0.0, 0.0, 0.0, 0.0, 0.0)","b'$VNYMR,+006.100,-001.651,+000.405,+00.5441,-00.0761,+00.3825,-00.294,-00.088,-10.237,+00.000867,-00.001463,+00.001002*61\r\n'"
2023/03/05/23:40:29.492162,0,1678077624,147241353,imu1_frame,0,0,0,,0.004295104624836228,-0.014198778493142748,0.05322625732141873,0.9984722891984127,"(0.0, 0.0, 0.0, 0.0, 0.0, 0.0, 0.0, 0.0, 0.0)",0.000612,-0.001434,0.000322,"(0.0, 0.0, 0.0, 0.0, 0.0, 0.0, 0.0, 0.0, 0.0)",-0.297,-0.107,-10.279,"(0.0, 0.0, 0.0, 0.0, 0.0, 0.0, 0.0, 0.0, 0.0)",0,0,0,,0.5419,-0.0748,0.3874,"(0.0, 0.0, 0.0, 0.0, 0.0, 0.0, 0.0, 0.0, 0.0)","b'$VNYMR,+006.097,-001.651,+000.405,+00.5419,-00.0748,+00.3874,-00.297,-00.107,-10.279,+00.000612,-00.001434,+00.000322*6D\r\n'"
2023/03/05/23:40:29.492205,0,1678077624,147241353,imu1_frame,0,0,0,,0.004295228532389913,-0.014198741010743388,0.05323497063386013,0.9984718246736742,"(0.0, 0.0, 0.0, 0.0, 0.0, 0.0, 0.0, 0.0, 0.0)",-0.000409,-0.001106,-5e-05,"(0.0, 0.0, 0.0, 0.0, 0.0, 0.0, 0.0, 0.0, 0.0)",-0.315,-0.083,-10.234,"(0.0, 0.0, 0.0, 0.0, 0.0, 0.0, 0.0, 0.0, 0.0)",0,0,0,,0.5419,-0.076,0.3887,"(0.0, 0.0, 0.0, 0.0, 0.0, 0.0, 0.0, 0.0, 0.0)","b'$VNYMR,+006.098,-001.651,+000.405,+00.5419,-00.0760,+00.3887,-00.315,-00.083,-10.234,-00.000409,-00.001106,-00.000050*61\r\n'"
2023/03/05/23:40:29.536191,0,1678077624,147241353,imu1_frame,0,0,0,,0.004295104624836228,-0.014198778493142748,0.05322625732141873,0.9984722891984127,"(0.0, 0.0, 0.0, 0.0, 0.0, 0.0, 0.0, 0.0, 0.0)",0.000461,0.000854,0.001284,"(0.0, 0.0, 0.0, 0.0, 0.0, 0.0, 0.0, 0.0, 0.0)",-0.281,-0.076,-10.267,"(0.0, 0.0, 0.0, 0.0, 0.0, 0.0, 0.0, 0.0, 0.0)",0,0,0,,0.5441,-0.0748,0.3875,"(0.0, 0.0, 0.0, 0.0, 0.0, 0.0, 0.0, 0.0, 0.0)","b'$VNYMR,+006.097,-001.651,+000.405,+00.5441,-00.0748,+00.3875,-00.281,-00.076,-10.267,+00.000461,+00.000854,+00.001284*69\r\n'"
2023/03/05/23:40:29.536224,0,1678077624,147241353,imu1_frame,0,0,0,,0.004295104624836228,-0.014198778493142748,0.05322625732141873,0.9984722891984127,"(0.0, 0.0, 0.0, 0.0, 0.0, 0.0, 0.0, 0.0, 0.0)",0.000125,-0.001004,0.000749,"(0.0, 0.0, 0.0, 0.0, 0.0, 0.0, 0.0, 0.0, 0.0)",-0.274,-0.073,-10.284,"(0.0, 0.0, 0.0, 0.0, 0.0, 0.0, 0.0, 0.0, 0.0)",0,0,0,,0.5431,-0.0643,0.3886,"(0.0, 0.0, 0.0, 0.0, 0.0, 0.0, 0.0, 0.0, 0.0)","b'$VNYMR,+006.097,-001.651,+000.405,+00.5431,-00.0643,+00.3886,-00.274,-00.073,-10.284,+00.000125,-00.001004,+00.000749*60\r\n'"
2023/03/05/23:40:29.580145,0,1678077624,147241353,imu1_frame,0,0,0,,0.004286515221811999,-0.014199205572960118,0.05323484672444295,0.9984718621185953,"(0.0, 0.0, 0.0, 0.0, 0.0, 0.0, 0.0, 0.0, 0.0)",0.000348,0.000668,0.002427,"(0.0, 0.0, 0.0, 0.0, 0.0, 0.0, 0.0, 0.0, 0.0)",-0.306,-0.038,-10.295,"(0.0, 0.0, 0.0, 0.0, 0.0, 0.0, 0.0, 0.0, 0.0)",0,0,0,,0.5419,-0.076,0.3875,"(0.0, 0.0, 0.0, 0.0, 0.0, 0.0, 0.0, 0.0, 0.0)","b'$VNYMR,+006.098,-001.651,+000.404,+00.5419,-00.0760,+00.3875,-00.306,-00.038,-10.295,+00.000348,+00.000668,+00.002427*68\r\n'"
2023/03/05/23:40:29.580215,0,1678077624,147241353,imu1_frame,0,0,0,,0.004287194446302114,-0.014216707114410249,0.053217468155601466,0.998472536570591,"(0.0, 0.0, 0.0, 0.0, 0.0, 0.0, 0.0, 0.0, 0.0)",0.00132,-0.001007,0.000276,"(0.0, 0.0, 0.0, 0.0, 0.0, 0.0, 0.0, 0.0, 0.0)",-0.311,-0.047,-10.267,"(0.0, 0.0, 0.0, 0.0, 0.0, 0.0, 0.0, 0.0, 0.0)",0,0,0,,0.5431,-0.0666,0.3861,"(0.0, 0.0, 0.0, 0.0, 0.0, 0.0, 0.0, 0.0, 0.0)","b'$VNYMR,+006.096,-001.653,+000.404,+00.5431,-00.0666,+00.3861,-00.311,-00.047,-10.267,+00.001320,-00.001007,+00.000276*68\r\n'"
2023/03/05/23:40:29.624155,0,1678077624,147241353,imu1_frame,0,0,0,,0.004270107189664651,-0.01422638656023908,0.05320853057317281,0.9984729482486099,"(0.0, 0.0, 0.0, 0.0, 0.0, 0.0, 0.0, 0.0, 0.0)",-6.5e-05,-0.000607,0.000452,"(0.0, 0.0, 0.0, 0.0, 0.0, 0.0, 0.0, 0.0, 0.0)",-0.317,-0.072,-10.275,"(0.0, 0.0, 0.0, 0.0, 0.0, 0.0, 0.0, 0.0, 0.0)",0,0,0,,0.5408,-0.0724,0.3886,"(0.0, 0.0, 0.0, 0.0, 0.0, 0.0, 0.0, 0.0, 0.0)","b'$VNYMR,+006.095,-001.654,+000.402,+00.5408,-00.0724,+00.3886,-00.317,-00.072,-10.275,-00.000065,-00.000607,+00.000452*6F\r\n'"
2023/03/05/23:40:29.668165,0,1678077624,147241353,imu1_frame,0,0,0,,0.004270819087762621,-0.014235025389212341,0.05322598107256011,0.9984718919906317,"(0.0, 0.0, 0.0, 0.0, 0.0, 0.0, 0.0, 0.0, 0.0)",-5e-06,-0.00208,-0.000203,"(0.0, 0.0, 0.0, 0.0, 0.0, 0.0, 0.0, 0.0, 0.0)",-0.296,-0.062,-10.297,"(0.0, 0.0, 0.0, 0.0, 0.0, 0.0, 0.0, 0.0, 0.0)",0,0,0,,0.5419,-0.0736,0.3887,"(0.0, 0.0, 0.0, 0.0, 0.0, 0.0, 0.0, 0.0, 0.0)","b'$VNYMR,+006.097,-001.655,+000.402,+00.5419,-00.0736,+00.3887,-00.296,-00.062,-10.297,-00.000005,-00.002080,-00.000203*62\r\n'"
2023/03/05/23:40:29.668189,0,1678077624,147241353,imu1_frame,0,0,0,,0.0042797808379053505,-0.014234486210262812,0.053243531907809505,0.9984709255598239,"(0.0, 0.0, 0.0, 0.0, 0.0, 0.0, 0.0, 0.0, 0.0)",0.000306,-0.001219,0.00014,"(0.0, 0.0, 0.0, 0.0, 0.0, 0.0, 0.0, 0.0, 0.0)",-0.292,-0.079,-10.302,"(0.0, 0.0, 0.0, 0.0, 0.0, 0.0, 0.0, 0.0, 0.0)",0,0,0,,0.5419,-0.0736,0.3925,"(0.0, 0.0, 0.0, 0.0, 0.0, 0.0, 0.0, 0.0, 0.0)","b'$VNYMR,+006.099,-001.655,+000.403,+00.5419,-00.0736,+00.3925,-00.292,-00.079,-10.302,+00.000306,-00.001219,+00.000140*62\r\n'"
2023/03/05/23:40:29.712283,0,1678077624,147241353,imu1_frame,0,0,0,,0.004262262930197158,-0.014226590551439561,0.053269399567001115,0.9984697332947889,"(0.0, 0.0, 0.0, 0.0, 0.0, 0.0, 0.0, 0.0, 0.0)",0.0005,0.001555,0.001794,"(0.0, 0.0, 0.0, 0.0, 0.0, 0.0, 0.0, 0.0, 0.0)",-0.272,-0.066,-10.296,"(0.0, 0.0, 0.0, 0.0, 0.0, 0.0, 0.0, 0.0, 0.0)",0,0,0,,0.5419,-0.0748,0.3887,"(0.0, 0.0, 0.0, 0.0, 0.0, 0.0, 0.0, 0.0, 0.0)","b'$VNYMR,+006.102,-001.654,+000.401,+00.5419,-00.0748,+00.3887,-00.272,-00.066,-10.296,+00.000500,+00.001555,+00.001794*69\r\n'"
2023/03/05/23:40:29.712313,0,1678077624,147241353,imu1_frame,0,0,0,,0.0042528696733026465,-0.014209554508943765,0.05328665456485338,0.9984690952180169,"(0.0, 0.0, 0.0, 0.0, 0.0, 0.0, 0.0, 0.0, 0.0)",-0.000547,0.002254,-0.001049,"(0.0, 0.0, 0.0, 0.0, 0.0, 0.0, 0.0, 0.0, 0.0)",-0.299,-0.066,-10.28,"(0.0, 0.0, 0.0, 0.0, 0.0, 0.0, 0.0, 0.0, 0.0)",0,0,0,,0.543,-0.0783,0.3888,"(0.0, 0.0, 0.0, 0.0, 0.0, 0.0, 0.0, 0.0, 0.0)","b'$VNYMR,+006.104,-001.652,+000.400,+00.5430,-00.0783,+00.3888,-00.299,-00.066,-10.280,-00.000547,+00.002254,-00.001049*68\r\n'"
2023/03/05/23:40:29.756222,0,1678077624,147241353,imu1_frame,0,0,0,,0.0042614267224912305,-0.014217988780578167,0.05324323587941234,0.998471254904423,"(0.0, 0.0, 0.0, 0.0, 0.0, 0.0, 0.0, 0.0, 0.0)",0.000408,-0.001155,-0.000471,"(0.0, 0.0, 0.0, 0.0, 0.0, 0.0, 0.0, 0.0, 0.0)",-0.295,-0.081,-10.284,"(0.0, 0.0, 0.0, 0.0, 0.0, 0.0, 0.0, 0.0, 0.0)",0,0,0,,0.5408,-0.0666,0.3873,"(0.0, 0.0, 0.0, 0.0, 0.0, 0.0, 0.0, 0.0, 0.0)","b'$VNYMR,+006.099,-001.653,+000.401,+00.5408,-00.0666,+00.3873,-00.295,-00.081,-10.284,+00.000408,-00.001155,-00.000471*6C\r\n'"
2023/03/05/23:40:29.756259,0,1678077624,147241353,imu1_frame,0,0,0,,0.0042788533327258954,-0.01421705950864218,0.05324348402202016,0.9984711803764201,"(0.0, 0.0, 0.0, 0.0, 0.0, 0.0, 0.0, 0.0, 0.0)",-0.001316,0.001153,-0.000526,"(0.0, 0.0, 0.0, 0.0, 0.0, 0.0, 0.0, 0.0, 0.0)",-0.289,-0.091,-10.283,"(0.0, 0.0, 0.0, 0.0, 0.0, 0.0, 0.0, 0.0, 0.0)",0,0,0,,0.5408,-0.0748,0.3899,"(0.0, 0.0, 0.0, 0.0, 0.0, 0.0, 0.0, 0.0, 0.0)","b'$VNYMR,+006.099,-001.653,+000.403,+00.5408,-00.0748,+00.3899,-00.289,-00.091,-10.283,-00.001316,+00.001153,-00.000526*60\r\n'"
2023/03/05/23:40:29.800236,0,1678077624,147241353,imu1_frame,0,0,0,,0.0042867309224496435,-0.014207993750046879,0.0532174441272537,0.9984726638682502,"(0.0, 0.0, 0.0, 0.0, 0.0, 0.0, 0.0, 0.0, 0.0)",0.000329,0.001929,-0.000258,"(0.0, 0.0, 0.0, 0.0, 0.0, 0.0, 0.0, 0.0, 0.0)",-0.292,-0.069,-10.268,"(0.0, 0.0, 0.0, 0.0, 0.0, 0.0, 0.0, 0.0, 0.0)",0,0,0,,0.5407,-0.0748,0.3836,"(0.0, 0.0, 0.0, 0.0, 0.0, 0.0, 0.0, 0.0, 0.0)","b'$VNYMR,+006.096,-001.652,+000.404,+00.5407,-00.0748,+00.3836,-00.292,-00.069,-10.268,+00.000329,+00.001929,-00.000258*6B\r\n'"
2023/03/05/23:40:29.805592,0,1678077624,147241353,imu1_frame,0,0,0,,0.004278265588273619,-0.014208383491658904,0.05323474676511338,0.9984717722694841,"(0.0, 0.0, 0.0, 0.0, 0.0, 0.0, 0.0, 0.0, 0.0)",0.001164,0.000596,8.3e-05,"(0.0, 0.0, 0.0, 0.0, 0.0, 0.0, 0.0, 0.0, 0.0)",-0.309,-0.058,-10.268,"(0.0, 0.0, 0.0, 0.0, 0.0, 0.0, 0.0, 0.0, 0.0)",0,0,0,,0.5419,-0.0713,0.3861,"(0.0, 0.0, 0.0, 0.0, 0.0, 0.0, 0.0, 0.0, 0.0)","b'$VNYMR,+006.098,-001.652,+000.403,+00.5419,-00.0713,+00.3861,-00.309,-00.058,-10.268,+00.001164,+00.000596,+00.000083*61\r\n'"
2023/03/05/23:40:29.848199,0,1678077624,147241353,imu1_frame,0,0,0,,0.0042788533327258954,-0.01421705950864218,0.05324348402202016,0.9984711803764201,"(0.0, 0.0, 0.0, 0.0, 0.0, 0.0, 0.0, 0.0, 0.0)",-6e-06,0.000788,0.000919,"(0.0, 0.0, 0.0, 0.0, 0.0, 0.0, 0.0, 0.0, 0.0)",-0.314,-0.061,-10.289,"(0.0, 0.0, 0.0, 0.0, 0.0, 0.0, 0.0, 0.0, 0.0)",0,0,0,,0.5419,-0.0725,0.3849,"(0.0, 0.0, 0.0, 0.0, 0.0, 0.0, 0.0, 0.0, 0.0)","b'$VNYMR,+006.099,-001.653,+000.403,+00.5419,-00.0725,+00.3849,-00.314,-00.061,-10.289,-00.000006,+00.000788,+00.000919*62\r\n'"
2023/03/05/23:40:29.892135,0,1678077624,147241353,imu1_frame,0,0,0,,0.0042622300045203525,-0.014235452678547483,0.05323457015580237,0.9984714647012964,"(0.0, 0.0, 0.0, 0.0, 0.0, 0.0, 0.0, 0.0, 0.0)",-0.000811,0.000822,-0.000738,"(0.0, 0.0, 0.0, 0.0, 0.0, 0.0, 0.0, 0.0, 0.0)",-0.299,-0.044,-10.293,"(0.0, 0.0, 0.0, 0.0, 0.0, 0.0, 0.0, 0.0, 0.0)",0,0,0,,0.5441,-0.0749,0.3863,"(0.0, 0.0, 0.0, 0.0, 0.0, 0.0, 0.0, 0.0, 0.0)","b'$VNYMR,+006.098,-001.655,+000.401,+00.5441,-00.0749,+00.3863,-00.299,-00.044,-10.293,-00.000811,+00.000822,-00.000738*6A\r\n'"
2023/03/05/23:40:29.892166,0,1678077624,147241353,imu1_frame,0,0,0,,0.004262014628701536,-0.014226664939794442,0.0532519729745611,0.9984706628691262,"(0.0, 0.0, 0.0, 0.0, 0.0, 0.0, 0.0, 0.0, 0.0)",0.000153,0.001299,0.000208,"(0.0, 0.0, 0.0, 0.0, 0.0, 0.0, 0.0, 0.0, 0.0)",-0.303,-0.076,-10.283,"(0.0, 0.0, 0.0, 0.0, 0.0, 0.0, 0.0, 0.0, 0.0)",0,0,0,,0.5419,-0.0748,0.3862,"(0.0, 0.0, 0.0, 0.0, 0.0, 0.0, 0.0, 0.0, 0.0)","b'$VNYMR,+006.100,-001.654,+000.401,+00.5419,-00.0748,+00.3862,-00.303,-00.076,-10.283,+00.000153,+00.001299,+00.000208*66\r\n'"
2023/03/05/23:40:29.936228,0,1678077624,147241353,imu1_frame,0,0,0,,0.00426238708045809,-0.014226553355636995,0.053278112857136406,0.9984692683935635,"(0.0, 0.0, 0.0, 0.0, 0.0, 0.0, 0.0, 0.0, 0.0)",-0.001037,-1.4e-05,-0.000232,"(0.0, 0.0, 0.0, 0.0, 0.0, 0.0, 0.0, 0.0, 0.0)",-0.284,-0.065,-10.296,"(0.0, 0.0, 0.0, 0.0, 0.0, 0.0, 0.0, 0.0, 0.0)",0,0,0,,0.543,-0.0784,0.385,"(0.0, 0.0, 0.0, 0.0, 0.0, 0.0, 0.0, 0.0, 0.0)","b'$VNYMR,+006.103,-001.654,+000.401,+00.5430,-00.0784,+00.3850,-00.284,-00.065,-10.296,-00.001037,-00.000014,-00.000232*6C\r\n'"
2023/03/05/23:40:29.936262,0,1678077624,147241353,imu1_frame,0,0,0,,0.004261830954482384,-0.014209015113799787,0.05330420512900571,0.9984681278848995,"(0.0, 0.0, 0.0, 0.0, 0.0, 0.0, 0.0, 0.0, 0.0)",-0.000187,0.001632,0.001834,"(0.0, 0.0, 0.0, 0.0, 0.0, 0.0, 0.0, 0.0, 0.0)",-0.267,-0.066,-10.296,"(0.0, 0.0, 0.0, 0.0, 0.0, 0.0, 0.0, 0.0, 0.0)",0,0,0,,0.5408,-0.0783,0.3912,"(0.0, 0.0, 0.0, 0.0, 0.0, 0.0, 0.0, 0.0, 0.0)","b'$VNYMR,+006.106,-001.652,+000.401,+00.5408,-00.0783,+00.3912,-00.267,-00.066,-10.296,-00.000187,+00.001632,+00.001834*6F\r\n'"
2023/03/05/23:40:29.980158,0,1678077624,147241353,imu1_frame,0,0,0,,0.0042353507603678404,-0.014201660323682266,0.05331252283272818,0.998467901115102,"(0.0, 0.0, 0.0, 0.0, 0.0, 0.0, 0.0, 0.0, 0.0)",-0.000202,0.000185,-7.7e-05,"(0.0, 0.0, 0.0, 0.0, 0.0, 0.0, 0.0, 0.0, 0.0)",-0.318,-0.077,-10.286,"(0.0, 0.0, 0.0, 0.0, 0.0, 0.0, 0.0, 0.0, 0.0)",0,0,0,,0.5419,-0.076,0.39,"(0.0, 0.0, 0.0, 0.0, 0.0, 0.0, 0.0, 0.0, 0.0)","b'$VNYMR,+006.107,-001.651,+000.398,+00.5419,-00.0760,+00.3900,-00.318,-00.077,-10.286,-00.000202,+00.000185,-00.000077*60\r\n'"
2023/03/05/23:40:29.980193,0,1678077624,147241353,imu1_frame,0,0,0,,0.004245240929476993,-0.014218547635164997,0.05333012057864112,0.9984666789991867,"(0.0, 0.0, 0.0, 0.0, 0.0, 0.0, 0.0, 0.0, 0.0)",-1.4e-05,-6.7e-05,-0.001204,"(0.0, 0.0, 0.0, 0.0, 0.0, 0.0, 0.0, 0.0, 0.0)",-0.313,-0.08,-10.3,"(0.0, 0.0, 0.0, 0.0, 0.0, 0.0, 0.0, 0.0, 0.0)",0,0,0,,0.543,-0.0772,0.385,"(0.0, 0.0, 0.0, 0.0, 0.0, 0.0, 0.0, 0.0, 0.0)","b'$VNYMR,+006.109,-001.653,+000.399,+00.5430,-00.0772,+00.3850,-00.313,-00.080,-10.300,-00.000014,-00.000067,-00.001204*64\r\n'"
2023/03/05/23:40:30.024241,0,1678077624,147241353,imu1_frame,0,0,0,,0.004254510541230003,-0.014235620251091548,0.05330415225700877,0.998467782959612,"(0.0, 0.0, 0.0, 0.0, 0.0, 0.0, 0.0, 0.0, 0.0)",-3.3e-05,0.001902,-0.001236,"(0.0, 0.0, 0.0, 0.0, 0.0, 0.0, 0.0, 0.0, 0.0)",-0.31,-0.08,-10.273,"(0.0, 0.0, 0.0, 0.0, 0.0, 0.0, 0.0, 0.0, 0.0)",0,0,0,,0.5441,-0.0761,0.3825,"(0.0, 0.0, 0.0, 0.0, 0.0, 0.0, 0.0, 0.0, 0.0)","b'$VNYMR,+006.106,-001.655,+000.400,+00.5441,-00.0761,+00.3825,-00.310,-00.080,-10.273,-00.000033,+00.001902,-00.001236*63\r\n'"
2023/03/05/23:40:30.030360,0,1678077624,147241353,imu1_frame,0,0,0,,0.00424651017273611,-0.01424472462528512,0.05332147819121731,0.9984667620583101,"(0.0, 0.0, 0.0, 0.0, 0.0, 0.0, 0.0, 0.0, 0.0)",0.000407,-0.000373,0.000536,"(0.0, 0.0, 0.0, 0.0, 0.0, 0.0, 0.0, 0.0, 0.0)",-0.299,-0.057,-10.266,"(0.0, 0.0, 0.0, 0.0, 0.0, 0.0, 0.0, 0.0, 0.0)",0,0,0,,0.5408,-0.0748,0.3899,"(0.0, 0.0, 0.0, 0.0, 0.0, 0.0, 0.0, 0.0, 0.0)","b'$VNYMR,+006.108,-001.656,+000.399,+00.5408,-00.0748,+00.3899,-00.299,-00.057,-10.266,+00.000407,-00.000373,+00.000536*68\r\n'"
2023/03/05/23:40:30.072225,0,1678077624,147241353,imu1_frame,0,0,0,,0.0042366517479410035,-0.014218976056501168,0.053338709760177114,0.9984662505778505,"(0.0, 0.0, 0.0, 0.0, 0.0, 0.0, 0.0, 0.0, 0.0)",-0.000539,0.002031,0.000648,"(0.0, 0.0, 0.0, 0.0, 0.0, 0.0, 0.0, 0.0, 0.0)",-0.283,-0.046,-10.292,"(0.0, 0.0, 0.0, 0.0, 0.0, 0.0, 0.0, 0.0, 0.0)",0,0,0,,0.5419,-0.0772,0.3862,"(0.0, 0.0, 0.0, 0.0, 0.0, 0.0, 0.0, 0.0, 0.0)","b'$VNYMR,+006.110,-001.653,+000.398,+00.5419,-00.0772,+00.3862,-00.283,-00.046,-10.292,-00.000539,+00.002031,+00.000648*69\r\n'"
2023/03/05/23:40:30.116340,0,1678077624,147241353,imu1_frame,0,0,0,,0.004218419968747468,-0.014202443558592438,0.05334712803366444,0.9984661133260818,"(0.0, 0.0, 0.0, 0.0, 0.0, 0.0, 0.0, 0.0, 0.0)",-3.2e-05,-0.002309,0.000636,"(0.0, 0.0, 0.0, 0.0, 0.0, 0.0, 0.0, 0.0, 0.0)",-0.298,-0.024,-10.3,"(0.0, 0.0, 0.0, 0.0, 0.0, 0.0, 0.0, 0.0, 0.0)",0,0,0,,0.5407,-0.0748,0.3823,"(0.0, 0.0, 0.0, 0.0, 0.0, 0.0, 0.0, 0.0, 0.0)","b'$VNYMR,+006.111,-001.651,+000.396,+00.5407,-00.0748,+00.3823,-00.298,-00.024,-10.300,-00.000032,-00.002309,+00.000636*6A\r\n'"
2023/03/05/23:40:30.116375,0,1678077624,147241353,imu1_frame,0,0,0,,0.004227906422976681,-0.014228302422491172,0.05330375607422159,0.9984680214237373,"(0.0, 0.0, 0.0, 0.0, 0.0, 0.0, 0.0, 0.0, 0.0)",0.000815,-0.001279,0.000783,"(0.0, 0.0, 0.0, 0.0, 0.0, 0.0, 0.0, 0.0, 0.0)",-0.346,-0.077,-10.266,"(0.0, 0.0, 0.0, 0.0, 0.0, 0.0, 0.0, 0.0, 0.0)",0,0,0,,0.5408,-0.076,0.3874,"(0.0, 0.0, 0.0, 0.0, 0.0, 0.0, 0.0, 0.0, 0.0)","b'$VNYMR,+006.106,-001.654,+000.397,+00.5408,-00.0760,+00.3874,-00.346,-00.077,-10.266,+00.000815,-00.001279,+00.000783*6B\r\n'"
2023/03/05/23:40:30.160148,0,1678077624,147241353,imu1_frame,0,0,0,,0.004254568439291485,-0.014253306816322153,0.05324320664492628,0.9984707821655878,"(0.0, 0.0, 0.0, 0.0, 0.0, 0.0, 0.0, 0.0, 0.0)",-0.000605,0.002328,-0.000245,"(0.0, 0.0, 0.0, 0.0, 0.0, 0.0, 0.0, 0.0, 0.0)",-0.341,-0.103,-10.236,"(0.0, 0.0, 0.0, 0.0, 0.0, 0.0, 0.0, 0.0, 0.0)",0,0,0,,0.5419,-0.0725,0.3874,"(0.0, 0.0, 0.0, 0.0, 0.0, 0.0, 0.0, 0.0, 0.0)","b'$VNYMR,+006.099,-001.657,+000.400,+00.5419,-00.0725,+00.3874,-00.341,-00.103,-10.236,-00.000605,+00.002328,-00.000245*67\r\n'"
2023/03/05/23:40:30.160169,0,1678077624,147241353,imu1_frame,0,0,0,,0.004281420987459482,-0.014260551531841081,0.053261030296428126,0.9984696133363794,"(0.0, 0.0, 0.0, 0.0, 0.0, 0.0, 0.0, 0.0, 0.0)",0.00011,0.003314,0.000753,"(0.0, 0.0, 0.0, 0.0, 0.0, 0.0, 0.0, 0.0, 0.0)",-0.295,-0.09,-10.258,"(0.0, 0.0, 0.0, 0.0, 0.0, 0.0, 0.0, 0.0, 0.0)",0,0,0,,0.543,-0.0784,0.3863,"(0.0, 0.0, 0.0, 0.0, 0.0, 0.0, 0.0, 0.0, 0.0)","b'$VNYMR,+006.101,-001.658,+000.403,+00.5430,-00.0784,+00.3863,-00.295,-00.090,-10.258,+00.000110,+00.003314,+00.000753*69\r\n'"
2023/03/05/23:40:30.204168,0,1678077624,147241353,imu1_frame,0,0,0,,0.004272492540502387,-0.014252228415449812,0.053278308574175426,0.998468848601778,"(0.0, 0.0, 0.0, 0.0, 0.0, 0.0, 0.0, 0.0, 0.0)",-0.000523,0.002842,0.001445,"(0.0, 0.0, 0.0, 0.0, 0.0, 0.0, 0.0, 0.0, 0.0)",-0.271,-0.064,-10.292,"(0.0, 0.0, 0.0, 0.0, 0.0, 0.0, 0.0, 0.0, 0.0)",0,0,0,,0.5419,-0.0689,0.3874,"(0.0, 0.0, 0.0, 0.0, 0.0, 0.0, 0.0, 0.0, 0.0)","b'$VNYMR,+006.103,-001.657,+000.402,+00.5419,-00.0689,+00.3874,-00.271,-00.064,-10.292,-00.000523,+00.002842,+00.001445*6D\r\n'"
2023/03/05/23:40:30.205165,0,1678077624,147241353,imu1_frame,0,0,0,,0.004261458961876118,-0.014209126683403902,0.05327806527627991,0.9984695230435566,"(0.0, 0.0, 0.0, 0.0, 0.0, 0.0, 0.0, 0.0, 0.0)",0.001397,0.005294,0.000912,"(0.0, 0.0, 0.0, 0.0, 0.0, 0.0, 0.0, 0.0, 0.0)",-0.281,-0.025,-10.334,"(0.0, 0.0, 0.0, 0.0, 0.0, 0.0, 0.0, 0.0, 0.0)",0,0,0,,0.5441,-0.0737,0.3837,"(0.0, 0.0, 0.0, 0.0, 0.0, 0.0, 0.0, 0.0, 0.0)","b'$VNYMR,+006.103,-001.652,+000.401,+00.5441,-00.0737,+00.3837,-00.281,-00.025,-10.334,+00.001397,+00.005294,+00.000912*64\r\n'"
2023/03/05/23:40:30.248235,0,1678077624,147241353,imu1_frame,0,0,0,,0.004235443099464819,-0.014210484534349008,0.05328640655322595,0.9984691692925197,"(0.0, 0.0, 0.0, 0.0, 0.0, 0.0, 0.0, 0.0, 0.0)",0.000871,0.000903,-0.000616,"(0.0, 0.0, 0.0, 0.0, 0.0, 0.0, 0.0, 0.0, 0.0)",-0.332,-0.033,-10.238,"(0.0, 0.0, 0.0, 0.0, 0.0, 0.0, 0.0, 0.0, 0.0)",0,0,0,,0.5408,-0.0724,0.3886,"(0.0, 0.0, 0.0, 0.0, 0.0, 0.0, 0.0, 0.0, 0.0)","b'$VNYMR,+006.104,-001.652,+000.398,+00.5408,-00.0724,+00.3886,-00.332,-00.033,-10.238,+00.000871,+00.000903,-00.000616*6D\r\n'"
2023/03/05/23:40:30.292144,0,1678077624,147241353,imu1_frame,0,0,0,,0.004236462799557496,-0.014236735445998695,0.05326033736076522,0.9984701819338453,"(0.0, 0.0, 0.0, 0.0, 0.0, 0.0, 0.0, 0.0, 0.0)",-2e-06,1.6e-05,-0.001173,"(0.0, 0.0, 0.0, 0.0, 0.0, 0.0, 0.0, 0.0, 0.0)",-0.324,-0.09,-10.267,"(0.0, 0.0, 0.0, 0.0, 0.0, 0.0, 0.0, 0.0, 0.0)",0,0,0,,0.5419,-0.0725,0.3887,"(0.0, 0.0, 0.0, 0.0, 0.0, 0.0, 0.0, 0.0, 0.0)","b'$VNYMR,+006.101,-001.655,+000.398,+00.5419,-00.0725,+00.3887,-00.324,-00.090,-10.267,-00.000002,+00.000016,-00.001173*69\r\n'"
2023/03/05/23:40:30.292187,0,1678077624,147241353,imu1_frame,0,0,0,,0.004263869949511285,-0.014261518319838492,0.053252068100943045,0.9984701526591765,"(0.0, 0.0, 0.0, 0.0, 0.0, 0.0, 0.0, 0.0, 0.0)",0.000902,0.002114,-3.8e-05,"(0.0, 0.0, 0.0, 0.0, 0.0, 0.0, 0.0, 0.0, 0.0)",-0.304,-0.122,-10.288,"(0.0, 0.0, 0.0, 0.0, 0.0, 0.0, 0.0, 0.0, 0.0)",0,0,0,,0.5408,-0.0724,0.3874,"(0.0, 0.0, 0.0, 0.0, 0.0, 0.0, 0.0, 0.0, 0.0)","b'$VNYMR,+006.100,-001.658,+000.401,+00.5408,-00.0724,+00.3874,-00.304,-00.122,-10.288,+00.000902,+00.002114,-00.000038*65\r\n'"
2023/03/05/23:40:30.340167,0,1678077624,147241353,imu1_frame,0,0,0,,0.004288369924876095,-0.014234058995881576,0.05323494282083876,0.9984713527742052,"(0.0, 0.0, 0.0, 0.0, 0.0, 0.0, 0.0, 0.0, 0.0)",-0.001293,0.002797,0.000499,"(0.0, 0.0, 0.0, 0.0, 0.0, 0.0, 0.0, 0.0, 0.0)",-0.261,-0.089,-10.291,"(0.0, 0.0, 0.0, 0.0, 0.0, 0.0, 0.0, 0.0, 0.0)",0,0,0,,0.5441,-0.0772,0.3876,"(0.0, 0.0, 0.0, 0.0, 0.0, 0.0, 0.0, 0.0, 0.0)","b'$VNYMR,+006.098,-001.655,+000.404,+00.5441,-00.0772,+00.3876,-00.261,-00.089,-10.291,-00.001293,+00.002797,+00.000499*6B\r\n'"
2023/03/05/23:40:30.340196,0,1678077624,147241353,imu1_frame,0,0,0,,0.004295940173738204,-0.014207379391750785,0.05325242135057796,0.9984707681695758,"(0.0, 0.0, 0.0, 0.0, 0.0, 0.0, 0.0, 0.0, 0.0)",0.000207,0.00086,-0.000374,"(0.0, 0.0, 0.0, 0.0, 0.0, 0.0, 0.0, 0.0, 0.0)",-0.308,-0.094,-10.289,"(0.0, 0.0, 0.0, 0.0, 0.0, 0.0, 0.0, 0.0, 0.0)",0,0,0,,0.543,-0.0748,0.385,"(0.0, 0.0, 0.0, 0.0, 0.0, 0.0, 0.0, 0.0, 0.0)","b'$VNYMR,+006.100,-001.652,+000.405,+00.5430,-00.0748,+00.3850,-00.308,-00.094,-10.289,+00.000207,+00.000860,-00.000374*60\r\n'"
2023/03/05/23:40:30.388151,0,1678077624,147241353,imu1_frame,0,0,0,,0.004278977399812156,-0.014217022168061403,0.0532521973247846,0.9984707157013505,"(0.0, 0.0, 0.0, 0.0, 0.0, 0.0, 0.0, 0.0, 0.0)",0.000229,-0.000153,-0.000197,"(0.0, 0.0, 0.0, 0.0, 0.0, 0.0, 0.0, 0.0, 0.0)",-0.335,-0.026,-10.281,"(0.0, 0.0, 0.0, 0.0, 0.0, 0.0, 0.0, 0.0, 0.0)",0,0,0,,0.5441,-0.0737,0.3825,"(0.0, 0.0, 0.0, 0.0, 0.0, 0.0, 0.0, 0.0, 0.0)","b'$VNYMR,+006.100,-001.653,+000.403,+00.5441,-00.0737,+00.3825,-00.335,-00.026,-10.281,+00.000229,-00.000153,-00.000197*68\r\n'"
2023/03/05/23:40:30.388190,0,1678077624,147241353,imu1_frame,0,0,0,,0.004243843066584938,-0.014227816586495572,0.05319944478579137,0.9984735239883383,"(0.0, 0.0, 0.0, 0.0, 0.0, 0.0, 0.0, 0.0, 0.0)",0.000229,0.001885,-0.000858,"(0.0, 0.0, 0.0, 0.0, 0.0, 0.0, 0.0, 0.0, 0.0)",-0.333,-0.038,-10.28,"(0.0, 0.0, 0.0, 0.0, 0.0, 0.0, 0.0, 0.0, 0.0)",0,0,0,,0.5408,-0.0619,0.3859,"(0.0, 0.0, 0.0, 0.0, 0.0, 0.0, 0.0, 0.0, 0.0)","b'$VNYMR,+006.094,-001.654,+000.399,+00.5408,-00.0619,+00.3859,-00.333,-00.038,-10.280,+00.000229,+00.001885,-00.000858*6B\r\n'"
2023/03/05/23:40:30.436225,0,1678077624,147241353,imu1_frame,0,0,0,,0.004226224268187879,-0.014246503803007795,0.05312082335480919,0.9984775181664998,"(0.0, 0.0, 0.0, 0.0, 0.0, 0.0, 0.0, 0.0, 0.0)",0.001286,8.3e-05,0.000319,"(0.0, 0.0, 0.0, 0.0, 0.0, 0.0, 0.0, 0.0, 0.0)",-0.291,-0.074,-10.298,"(0.0, 0.0, 0.0, 0.0, 0.0, 0.0, 0.0, 0.0, 0.0)",0,0,0,,0.5419,-0.0737,0.3836,"(0.0, 0.0, 0.0, 0.0, 0.0, 0.0, 0.0, 0.0, 0.0)","b'$VNYMR,+006.085,-001.656,+000.397,+00.5419,-00.0737,+00.3836,-00.291,-00.074,-10.298,+00.001286,+00.000083,+00.000319*68\r\n'"
2023/03/05/23:40:30.436261,0,1678077624,147241353,imu1_frame,0,0,0,,0.004260400637337697,-0.014227148358466458,0.053138699728539705,0.9984766976886119,"(0.0, 0.0, 0.0, 0.0, 0.0, 0.0, 0.0, 0.0, 0.0)",0.000313,0.00079,0.00094,"(0.0, 0.0, 0.0, 0.0, 0.0, 0.0, 0.0, 0.0, 0.0)",-0.283,-0.118,-10.269,"(0.0, 0.0, 0.0, 0.0, 0.0, 0.0, 0.0, 0.0, 0.0)",0,0,0,,0.543,-0.0772,0.385,"(0.0, 0.0, 0.0, 0.0, 0.0, 0.0, 0.0, 0.0, 0.0)","b'$VNYMR,+006.087,-001.654,+000.401,+00.5430,-00.0772,+00.3850,-00.283,-00.118,-10.269,+00.000313,+00.000790,+00.000940*63\r\n'"
2023/03/05/23:40:30.480148,0,1678077624,147241353,imu1_frame,0,0,0,,0.004296337955857325,-0.014233819408065554,0.053182787125643026,0.9984741013260064,"(0.0, 0.0, 0.0, 0.0, 0.0, 0.0, 0.0, 0.0, 0.0)",-0.00024,-0.000327,-6.3e-05,"(0.0, 0.0, 0.0, 0.0, 0.0, 0.0, 0.0, 0.0, 0.0)",-0.312,-0.106,-10.243,"(0.0, 0.0, 0.0, 0.0, 0.0, 0.0, 0.0, 0.0, 0.0)",0,0,0,,0.5396,-0.0736,0.3873,"(0.0, 0.0, 0.0, 0.0, 0.0, 0.0, 0.0, 0.0, 0.0)","b'$VNYMR,+006.092,-001.655,+000.405,+00.5396,-00.0736,+00.3873,-00.312,-00.106,-10.243,-00.000240,-00.000327,-00.000063*67\r\n'"
2023/03/05/23:40:30.480175,0,1678077624,147241353,imu1_frame,0,0,0,,0.004296586382216748,-0.014233744420654516,0.05320021377810597,0.9984731729591895,"(0.0, 0.0, 0.0, 0.0, 0.0, 0.0, 0.0, 0.0, 0.0)",-0.001152,0.004235,-0.001026,"(0.0, 0.0, 0.0, 0.0, 0.0, 0.0, 0.0, 0.0, 0.0)",-0.327,-0.058,-10.272,"(0.0, 0.0, 0.0, 0.0, 0.0, 0.0, 0.0, 0.0, 0.0)",0,0,0,,0.5408,-0.0748,0.3886,"(0.0, 0.0, 0.0, 0.0, 0.0, 0.0, 0.0, 0.0, 0.0)","b'$VNYMR,+006.094,-001.655,+000.405,+00.5408,-00.0748,+00.3886,-00.327,-00.058,-10.272,-00.001152,+00.004235,-00.001026*6D\r\n'"
2023/03/05/23:40:30.524236,0,1678077624,147241353,imu1_frame,0,0,0,,0.004262072159759746,-0.014244352013735164,0.05319102736018756,0.9984736590341187,"(0.0, 0.0, 0.0, 0.0, 0.0, 0.0, 0.0, 0.0, 0.0)",-0.001664,0.001139,0.000567,"(0.0, 0.0, 0.0, 0.0, 0.0, 0.0, 0.0, 0.0, 0.0)",-0.29,-0.037,-10.297,"(0.0, 0.0, 0.0, 0.0, 0.0, 0.0, 0.0, 0.0, 0.0)",0,0,0,,0.5464,-0.0784,0.3902,"(0.0, 0.0, 0.0, 0.0, 0.0, 0.0, 0.0, 0.0, 0.0)","b'$VNYMR,+006.093,-001.656,+000.401,+00.5464,-00.0784,+00.3902,-00.290,-00.037,-10.297,-00.001664,+00.001139,+00.000567*6A\r\n'"
2023/03/05/23:40:30.530540,0,1678077624,147241353,imu1_frame,0,0,0,,0.004245018445380232,-0.014245169240684268,0.05321691870422283,0.9984723403957321,"(0.0, 0.0, 0.0, 0.0, 0.0, 0.0, 0.0, 0.0, 0.0)",0.001595,-0.000433,-0.000624,"(0.0, 0.0, 0.0, 0.0, 0.0, 0.0, 0.0, 0.0, 0.0)",-0.293,-0.057,-10.316,"(0.0, 0.0, 0.0, 0.0, 0.0, 0.0, 0.0, 0.0, 0.0)",0,0,0,,0.5418,-0.0784,0.3774,"(0.0, 0.0, 0.0, 0.0, 0.0, 0.0, 0.0, 0.0, 0.0)","b'$VNYMR,+006.096,-001.656,+000.399,+00.5418,-00.0784,+00.3774,-00.293,-00.057,-10.316,+00.001595,-00.000433,-00.000624*61\r\n'"
2023/03/05/23:40:30.572161,0,1678077624,147241353,imu1_frame,0,0,0,,0.004244215548497759,-0.014227705478068113,0.05322558474328861,0.9984721308879594,"(0.0, 0.0, 0.0, 0.0, 0.0, 0.0, 0.0, 0.0, 0.0)",-0.000423,0.001692,-0.000711,"(0.0, 0.0, 0.0, 0.0, 0.0, 0.0, 0.0, 0.0, 0.0)",-0.248,-0.075,-10.306,"(0.0, 0.0, 0.0, 0.0, 0.0, 0.0, 0.0, 0.0, 0.0)",0,0,0,,0.5396,-0.0759,0.3886,"(0.0, 0.0, 0.0, 0.0, 0.0, 0.0, 0.0, 0.0, 0.0)","b'$VNYMR,+006.097,-001.654,+000.399,+00.5396,-00.0759,+00.3886,-00.248,-00.075,-10.306,-00.000423,+00.001692,-00.000711*64\r\n'"
2023/03/05/23:40:30.616245,0,1678077624,147241353,imu1_frame,0,0,0,,0.004261766325907629,-0.014226739323815633,0.05323454636589962,0.998471592139312,"(0.0, 0.0, 0.0, 0.0, 0.0, 0.0, 0.0, 0.0, 0.0)",-0.00029,-6.7e-05,-0.001262,"(0.0, 0.0, 0.0, 0.0, 0.0, 0.0, 0.0, 0.0, 0.0)",-0.306,-0.088,-10.26,"(0.0, 0.0, 0.0, 0.0, 0.0, 0.0, 0.0, 0.0, 0.0)",0,0,0,,0.5441,-0.0748,0.3875,"(0.0, 0.0, 0.0, 0.0, 0.0, 0.0, 0.0, 0.0, 0.0)","b'$VNYMR,+006.098,-001.654,+000.401,+00.5441,-00.0748,+00.3875,-00.306,-00.088,-10.260,-00.000290,-00.000067,-00.001262*61\r\n'"
2023/03/05/23:40:30.616279,0,1678077624,147241353,imu1_frame,0,0,0,,0.0042717462897113,-0.014252452103099358,0.05322602879450647,0.9984716368788107,"(0.0, 0.0, 0.0, 0.0, 0.0, 0.0, 0.0, 0.0, 0.0)",-0.001155,0.002011,0.000252,"(0.0, 0.0, 0.0, 0.0, 0.0, 0.0, 0.0, 0.0, 0.0)",-0.337,-0.101,-10.229,"(0.0, 0.0, 0.0, 0.0, 0.0, 0.0, 0.0, 0.0, 0.0)",0,0,0,,0.543,-0.0678,0.3811,"(0.0, 0.0, 0.0, 0.0, 0.0, 0.0, 0.0, 0.0, 0.0)","b'$VNYMR,+006.097,-001.657,+000.402,+00.5430,-00.0678,+00.3811,-00.337,-00.101,-10.229,-00.001155,+00.002011,+00.000252*6D\r\n'"
2023/03/05/23:40:30.660209,0,1678077624,147241353,imu1_frame,0,0,0,,0.004262659838828533,-0.014253028188339815,0.05319976447083278,0.9984730672275587,"(0.0, 0.0, 0.0, 0.0, 0.0, 0.0, 0.0, 0.0, 0.0)",-0.000832,0.002084,0.000454,"(0.0, 0.0, 0.0, 0.0, 0.0, 0.0, 0.0, 0.0, 0.0)",-0.318,-0.042,-10.278,"(0.0, 0.0, 0.0, 0.0, 0.0, 0.0, 0.0, 0.0, 0.0)",0,0,0,,0.5419,-0.0748,0.3887,"(0.0, 0.0, 0.0, 0.0, 0.0, 0.0, 0.0, 0.0, 0.0)","b'$VNYMR,+006.094,-001.657,+000.401,+00.5419,-00.0748,+00.3887,-00.318,-00.042,-10.278,-00.000832,+00.002084,+00.000454*61\r\n'"
2023/03/05/23:40:30.660234,0,1678077624,147241353,imu1_frame,0,0,0,,0.004235932179035271,-0.014245744546693473,0.05319065442569565,0.9984737702727353,"(0.0, 0.0, 0.0, 0.0, 0.0, 0.0, 0.0, 0.0, 0.0)",-0.000131,0.002768,-0.000151,"(0.0, 0.0, 0.0, 0.0, 0.0, 0.0, 0.0, 0.0, 0.0)",-0.251,-0.043,-10.284,"(0.0, 0.0, 0.0, 0.0, 0.0, 0.0, 0.0, 0.0, 0.0)",0,0,0,,0.5419,-0.0748,0.3849,"(0.0, 0.0, 0.0, 0.0, 0.0, 0.0, 0.0, 0.0, 0.0)","b'$VNYMR,+006.093,-001.656,+000.398,+00.5419,-00.0748,+00.3849,-00.251,-00.043,-10.284,-00.000131,+00.002768,-00.000151*65\r\n'"
2023/03/05/23:40:30.704415,0,1678077624,147241353,imu1_frame,0,0,0,,0.004234078971363939,-0.014210891042226389,0.0531905601482037,0.9984742798200514,"(0.0, 0.0, 0.0, 0.0, 0.0, 0.0, 0.0, 0.0, 0.0)",8.4e-05,0.001083,-0.000187,"(0.0, 0.0, 0.0, 0.0, 0.0, 0.0, 0.0, 0.0, 0.0)",-0.28,-0.06,-10.308,"(0.0, 0.0, 0.0, 0.0, 0.0, 0.0, 0.0, 0.0, 0.0)",0,0,0,,0.5419,-0.0748,0.3849,"(0.0, 0.0, 0.0, 0.0, 0.0, 0.0, 0.0, 0.0, 0.0)","b'$VNYMR,+006.093,-001.652,+000.398,+00.5419,-00.0748,+00.3849,-00.280,-00.060,-10.308,+00.000084,+00.001083,-00.000187*6A\r\n'"
2023/03/05/23:40:30.705207,0,1678077624,147241353,imu1_frame,0,0,0,,0.0042155692706735545,-0.014203289963662788,0.05314672196725605,0.9984768006689326,"(0.0, 0.0, 0.0, 0.0, 0.0, 0.0, 0.0, 0.0, 0.0)",-8.2e-05,0.000726,0.000306,"(0.0, 0.0, 0.0, 0.0, 0.0, 0.0, 0.0, 0.0, 0.0)",-0.292,-0.062,-10.23,"(0.0, 0.0, 0.0, 0.0, 0.0, 0.0, 0.0, 0.0, 0.0)",0,0,0,,0.5419,-0.0748,0.3887,"(0.0, 0.0, 0.0, 0.0, 0.0, 0.0, 0.0, 0.0, 0.0)","b'$VNYMR,+006.088,-001.651,+000.396,+00.5419,-00.0748,+00.3887,-00.292,-00.062,-10.230,-00.000082,+00.000726,+00.000306*60\r\n'"
2023/03/05/23:40:30.748174,0,1678077624,147241353,imu1_frame,0,0,0,,0.004225084376032541,-0.014220289839228592,0.0531381795729743,0.9984769731398787,"(0.0, 0.0, 0.0, 0.0, 0.0, 0.0, 0.0, 0.0, 0.0)",-0.000838,-0.001328,-0.001918,"(0.0, 0.0, 0.0, 0.0, 0.0, 0.0, 0.0, 0.0, 0.0)",-0.323,-0.098,-10.231,"(0.0, 0.0, 0.0, 0.0, 0.0, 0.0, 0.0, 0.0, 0.0)",0,0,0,,0.5431,-0.0654,0.3848,"(0.0, 0.0, 0.0, 0.0, 0.0, 0.0, 0.0, 0.0, 0.0)","b'$VNYMR,+006.087,-001.653,+000.397,+00.5431,-00.0654,+00.3848,-00.323,-00.098,-10.231,-00.000838,-00.001328,-00.001918*60\r\n'"
2023/03/05/23:40:30.792150,0,1678077624,147241353,imu1_frame,0,0,0,,0.004243312535638448,-0.014236826231615306,0.05312976170542416,0.9984771081495563,"(0.0, 0.0, 0.0, 0.0, 0.0, 0.0, 0.0, 0.0, 0.0)",-0.000977,-0.001447,0.00039,"(0.0, 0.0, 0.0, 0.0, 0.0, 0.0, 0.0, 0.0, 0.0)",-0.317,-0.111,-10.262,"(0.0, 0.0, 0.0, 0.0, 0.0, 0.0, 0.0, 0.0, 0.0)",0,0,0,,0.5442,-0.0702,0.3862,"(0.0, 0.0, 0.0, 0.0, 0.0, 0.0, 0.0, 0.0, 0.0)","b'$VNYMR,+006.086,-001.655,+000.399,+00.5442,-00.0702,+00.3862,-00.317,-00.111,-10.262,-00.000977,-00.001447,+00.000390*6F\r\n'"
2023/03/05/23:40:30.792186,0,1678077624,147241353,imu1_frame,0,0,0,,0.00425168728423603,-0.014227612080559969,0.05313857557122532,0.998476734829602,"(0.0, 0.0, 0.0, 0.0, 0.0, 0.0, 0.0, 0.0, 0.0)",-0.001596,-0.001016,-0.001204,"(0.0, 0.0, 0.0, 0.0, 0.0, 0.0, 0.0, 0.0, 0.0)",-0.281,-0.061,-10.24,"(0.0, 0.0, 0.0, 0.0, 0.0, 0.0, 0.0, 0.0, 0.0)",0,0,0,,0.5441,-0.0748,0.3875,"(0.0, 0.0, 0.0, 0.0, 0.0, 0.0, 0.0, 0.0, 0.0)","b'$VNYMR,+006.087,-001.654,+000.400,+00.5441,-00.0748,+00.3875,-00.281,-00.061,-10.240,-00.001596,-00.001016,-00.001204*62\r\n'"
2023/03/05/23:40:30.836247,0,1678077624,147241353,imu1_frame,0,0,0,,0.004223786849618148,-0.01420297361710726,0.05311199246588033,0.9984786184097207,"(0.0, 0.0, 0.0, 0.0, 0.0, 0.0, 0.0, 0.0, 0.0)",5e-06,0.000318,0.000335,"(0.0, 0.0, 0.0, 0.0, 0.0, 0.0, 0.0, 0.0, 0.0)",-0.269,-0.032,-10.268,"(0.0, 0.0, 0.0, 0.0, 0.0, 0.0, 0.0, 0.0, 0.0)",0,0,0,,0.5431,-0.0666,0.3861,"(0.0, 0.0, 0.0, 0.0, 0.0, 0.0, 0.0, 0.0, 0.0)","b'$VNYMR,+006.084,-001.651,+000.397,+00.5431,-00.0666,+00.3861,-00.269,-00.032,-10.268,+00.000005,+00.000318,+00.000335*6E\r\n'"
2023/03/05/23:40:30.836300,0,1678077624,147241353,imu1_frame,0,0,0,,0.004205187263885427,-0.014186547155765734,0.05309427108104769,0.9984798729359772,"(0.0, 0.0, 0.0, 0.0, 0.0, 0.0, 0.0, 0.0, 0.0)",5.6e-05,-0.002658,0.00015,"(0.0, 0.0, 0.0, 0.0, 0.0, 0.0, 0.0, 0.0, 0.0)",-0.276,-0.021,-10.233,"(0.0, 0.0, 0.0, 0.0, 0.0, 0.0, 0.0, 0.0, 0.0)",0,0,0,,0.5442,-0.0643,0.3849,"(0.0, 0.0, 0.0, 0.0, 0.0, 0.0, 0.0, 0.0, 0.0)","b'$VNYMR,+006.082,-001.649,+000.395,+00.5442,-00.0643,+00.3849,-00.276,-00.021,-10.233,+00.000056,-00.002658,+00.000150*6A\r\n'"
2023/03/05/23:40:30.880150,0,1678077624,147241353,imu1_frame,0,0,0,,0.004196902994552847,-0.014204583849749217,0.05305934031794103,0.9984815081952868,"(0.0, 0.0, 0.0, 0.0, 0.0, 0.0, 0.0, 0.0, 0.0)",0.000927,-0.002287,0.000507,"(0.0, 0.0, 0.0, 0.0, 0.0, 0.0, 0.0, 0.0, 0.0)",-0.318,-0.06,-10.259,"(0.0, 0.0, 0.0, 0.0, 0.0, 0.0, 0.0, 0.0, 0.0)",0,0,0,,0.5419,-0.0771,0.3887,"(0.0, 0.0, 0.0, 0.0, 0.0, 0.0, 0.0, 0.0, 0.0)","b'$VNYMR,+006.078,-001.651,+000.394,+00.5419,-00.0771,+00.3887,-00.318,-00.060,-10.259,+00.000927,-00.002287,+00.000507*64\r\n'"
2023/03/05/23:40:30.880181,0,1678077624,147241353,imu1_frame,0,0,0,,0.004206878702149415,-0.014230297848381807,0.05305082097298587,0.9984815527533917,"(0.0, 0.0, 0.0, 0.0, 0.0, 0.0, 0.0, 0.0, 0.0)",-0.001013,-0.001471,0.000829,"(0.0, 0.0, 0.0, 0.0, 0.0, 0.0, 0.0, 0.0, 0.0)",-0.301,-0.089,-10.217,"(0.0, 0.0, 0.0, 0.0, 0.0, 0.0, 0.0, 0.0, 0.0)",0,0,0,,0.5441,-0.0772,0.3787,"(0.0, 0.0, 0.0, 0.0, 0.0, 0.0, 0.0, 0.0, 0.0)","b'$VNYMR,+006.077,-001.654,+000.395,+00.5441,-00.0772,+00.3787,-00.301,-00.089,-10.217,-00.001013,-00.001471,+00.000829*6F\r\n'"
2023/03/05/23:40:30.924270,0,1678077624,147241353,imu1_frame,0,0,0,,0.004224891828944662,-0.014238048506508269,0.05305980623109076,0.9984808887637655,"(0.0, 0.0, 0.0, 0.0, 0.0, 0.0, 0.0, 0.0, 0.0)",-0.000286,-0.002064,0.000701,"(0.0, 0.0, 0.0, 0.0, 0.0, 0.0, 0.0, 0.0, 0.0)",-0.291,-0.098,-10.293,"(0.0, 0.0, 0.0, 0.0, 0.0, 0.0, 0.0, 0.0, 0.0)",0,0,0,,0.543,-0.076,0.3862,"(0.0, 0.0, 0.0, 0.0, 0.0, 0.0, 0.0, 0.0, 0.0)","b'$VNYMR,+006.078,-001.655,+000.397,+00.5430,-00.0760,+00.3862,-00.291,-00.098,-10.293,-00.000286,-00.002064,+00.000701*6F\r\n'"
2023/03/05/23:40:30.929771,0,1678077624,147241353,imu1_frame,0,0,0,,0.004232342751900487,-0.014211408226499297,0.053068573105783896,0.9984807708211342,"(0.0, 0.0, 0.0, 0.0, 0.0, 0.0, 0.0, 0.0, 0.0)",0.000238,-0.00226,0.000485,"(0.0, 0.0, 0.0, 0.0, 0.0, 0.0, 0.0, 0.0, 0.0)",-0.292,-0.079,-10.244,"(0.0, 0.0, 0.0, 0.0, 0.0, 0.0, 0.0, 0.0, 0.0)",0,0,0,,0.5419,-0.0748,0.3887,"(0.0, 0.0, 0.0, 0.0, 0.0, 0.0, 0.0, 0.0, 0.0)","b'$VNYMR,+006.079,-001.652,+000.398,+00.5419,-00.0748,+00.3887,-00.292,-00.079,-10.244,+00.000238,-00.002260,+00.000485*60\r\n'"
2023/03/05/23:40:30.972200,0,1678077624,147241353,imu1_frame,0,0,0,,0.004222952623500744,-0.01419437076214077,0.05308582881775578,0.9984801356504487,"(0.0, 0.0, 0.0, 0.0, 0.0, 0.0, 0.0, 0.0, 0.0)",-0.000245,-0.002822,0.000791,"(0.0, 0.0, 0.0, 0.0, 0.0, 0.0, 0.0, 0.0, 0.0)",-0.294,-0.073,-10.318,"(0.0, 0.0, 0.0, 0.0, 0.0, 0.0, 0.0, 0.0, 0.0)",0,0,0,,0.5419,-0.0736,0.3862,"(0.0, 0.0, 0.0, 0.0, 0.0, 0.0, 0.0, 0.0, 0.0)","b'$VNYMR,+006.081,-001.650,+000.397,+00.5419,-00.0736,+00.3862,-00.294,-00.073,-10.318,-00.000245,-00.002822,+00.000791*6A\r\n'"
2023/03/05/23:40:31.016150,0,1678077624,147241353,imu1_frame,0,0,0,,0.0042054019794775035,-0.01419533398207379,0.05307686768556078,0.9984806724238672,"(0.0, 0.0, 0.0, 0.0, 0.0, 0.0, 0.0, 0.0, 0.0)",3e-06,-0.000772,-2.2e-05,"(0.0, 0.0, 0.0, 0.0, 0.0, 0.0, 0.0, 0.0, 0.0)",-0.291,-0.054,-10.261,"(0.0, 0.0, 0.0, 0.0, 0.0, 0.0, 0.0, 0.0, 0.0)",0,0,0,,0.5452,-0.0773,0.38,"(0.0, 0.0, 0.0, 0.0, 0.0, 0.0, 0.0, 0.0, 0.0)","b'$VNYMR,+006.080,-001.650,+000.395,+00.5452,-00.0773,+00.3800,-00.291,-00.054,-10.261,+00.000003,-00.000772,-00.000022*6B\r\n'"
2023/03/05/23:40:31.016190,0,1678077624,147241353,imu1_frame,0,0,0,,0.004187727431464185,-0.014196333437803505,0.05305919313754747,0.9984816718795968,"(0.0, 0.0, 0.0, 0.0, 0.0, 0.0, 0.0, 0.0, 0.0)",-0.000305,-0.00204,-0.000877,"(0.0, 0.0, 0.0, 0.0, 0.0, 0.0, 0.0, 0.0, 0.0)",-0.289,-0.061,-10.283,"(0.0, 0.0, 0.0, 0.0, 0.0, 0.0, 0.0, 0.0, 0.0)",0,0,0,,0.543,-0.0737,0.3812,"(0.0, 0.0, 0.0, 0.0, 0.0, 0.0, 0.0, 0.0, 0.0)","b'$VNYMR,+006.078,-001.650,+000.393,+00.5430,-00.0737,+00.3812,-00.289,-00.061,-10.283,-00.000305,-00.002040,-00.000877*61\r\n'"
2023/03/05/23:40:31.060189,0,1678077624,147241353,imu1_frame,0,0,0,,0.004205706462211129,-0.01421294436913328,0.05303334744368322,0.9984827331027968,"(0.0, 0.0, 0.0, 0.0, 0.0, 0.0, 0.0, 0.0, 0.0)",-0.000276,-0.003192,-0.000655,"(0.0, 0.0, 0.0, 0.0, 0.0, 0.0, 0.0, 0.0, 0.0)",-0.289,-0.083,-10.246,"(0.0, 0.0, 0.0, 0.0, 0.0, 0.0, 0.0, 0.0, 0.0)",0,0,0,,0.5408,-0.0725,0.3848,"(0.0, 0.0, 0.0, 0.0, 0.0, 0.0, 0.0, 0.0, 0.0)","b'$VNYMR,+006.075,-001.652,+000.395,+00.5408,-00.0725,+00.3848,-00.289,-00.083,-10.246,-00.000276,-00.003192,-00.000655*6E\r\n'"
2023/03/05/23:40:31.060214,0,1678077624,147241353,imu1_frame,0,0,0,,0.004230675074291338,-0.01419420289177947,0.05301624549472031,0.9984838024256208,"(0.0, 0.0, 0.0, 0.0, 0.0, 0.0, 0.0, 0.0, 0.0)",0.00044,-0.000448,-0.000375,"(0.0, 0.0, 0.0, 0.0, 0.0, 0.0, 0.0, 0.0, 0.0)",-0.269,-0.092,-10.289,"(0.0, 0.0, 0.0, 0.0, 0.0, 0.0, 0.0, 0.0, 0.0)",0,0,0,,0.5441,-0.0737,0.3863,"(0.0, 0.0, 0.0, 0.0, 0.0, 0.0, 0.0, 0.0, 0.0)","b'$VNYMR,+006.073,-001.650,+000.398,+00.5441,-00.0737,+00.3863,-00.269,-00.092,-10.289,+00.000440,-00.000448,-00.000375*6E\r\n'"
2023/03/05/23:40:31.104225,0,1678077624,147241353,imu1_frame,0,0,0,,0.004230089499792094,-0.014185526345098913,0.053007508466878774,0.9984843920819544,"(0.0, 0.0, 0.0, 0.0, 0.0, 0.0, 0.0, 0.0, 0.0)",0.000111,0.000648,0.00059,"(0.0, 0.0, 0.0, 0.0, 0.0, 0.0, 0.0, 0.0, 0.0)",-0.294,-0.068,-10.278,"(0.0, 0.0, 0.0, 0.0, 0.0, 0.0, 0.0, 0.0, 0.0)",0,0,0,,0.5419,-0.0748,0.3874,"(0.0, 0.0, 0.0, 0.0, 0.0, 0.0, 0.0, 0.0, 0.0)","b'$VNYMR,+006.072,-001.649,+000.398,+00.5419,-00.0748,+00.3874,-00.294,-00.068,-10.278,+00.000111,+00.000648,+00.000590*63\r\n'"
2023/03/05/23:40:31.104980,0,1678077624,147241353,imu1_frame,0,0,0,,0.004212415058047659,-0.014186525021162263,0.05298983402513434,0.9984853907580177,"(0.0, 0.0, 0.0, 0.0, 0.0, 0.0, 0.0, 0.0, 0.0)",-0.000285,0.000972,-0.000202,"(0.0, 0.0, 0.0, 0.0, 0.0, 0.0, 0.0, 0.0, 0.0)",-0.309,-0.029,-10.294,"(0.0, 0.0, 0.0, 0.0, 0.0, 0.0, 0.0, 0.0, 0.0)",0,0,0,,0.5419,-0.0725,0.3874,"(0.0, 0.0, 0.0, 0.0, 0.0, 0.0, 0.0, 0.0, 0.0)","b'$VNYMR,+006.070,-001.649,+000.396,+00.5419,-00.0725,+00.3874,-00.309,-00.029,-10.294,-00.000285,+00.000972,-00.000202*62\r\n'"
2023/03/05/23:40:31.148169,0,1678077624,147241353,imu1_frame,0,0,0,,0.004186984107443477,-0.014196552687238944,0.05300691268675361,0.9984844486837546,"(0.0, 0.0, 0.0, 0.0, 0.0, 0.0, 0.0, 0.0, 0.0)",0.000214,-0.000127,-0.000226,"(0.0, 0.0, 0.0, 0.0, 0.0, 0.0, 0.0, 0.0, 0.0)",-0.294,-0.047,-10.273,"(0.0, 0.0, 0.0, 0.0, 0.0, 0.0, 0.0, 0.0, 0.0)",0,0,0,,0.543,-0.076,0.3862,"(0.0, 0.0, 0.0, 0.0, 0.0, 0.0, 0.0, 0.0, 0.0)","b'$VNYMR,+006.072,-001.650,+000.393,+00.5430,-00.0760,+00.3862,-00.294,-00.047,-10.273,+00.000214,-00.000127,-00.000226*62\r\n'"
2023/03/05/23:40:31.192194,0,1678077624,147241353,imu1_frame,0,0,0,,0.004178484462212634,-0.014205801655638046,0.05298938509940109,0.9984852830831845,"(0.0, 0.0, 0.0, 0.0, 0.0, 0.0, 0.0, 0.0, 0.0)",0.000825,-0.000814,-0.000783,"(0.0, 0.0, 0.0, 0.0, 0.0, 0.0, 0.0, 0.0, 0.0)",-0.298,-0.056,-10.289,"(0.0, 0.0, 0.0, 0.0, 0.0, 0.0, 0.0, 0.0, 0.0)",0,0,0,,0.5419,-0.0643,0.3848,"(0.0, 0.0, 0.0, 0.0, 0.0, 0.0, 0.0, 0.0, 0.0)","b'$VNYMR,+006.070,-001.651,+000.392,+00.5419,-00.0643,+00.3848,-00.298,-00.056,-10.289,+00.000825,-00.000814,-00.000783*61\r\n'"
2023/03/05/23:40:31.192233,0,1678077624,147241353,imu1_frame,0,0,0,,0.004195112008501744,-0.014187413257357008,0.052998299842915854,0.9984850016670564,"(0.0, 0.0, 0.0, 0.0, 0.0, 0.0, 0.0, 0.0, 0.0)",-0.00032,0.000871,0.000234,"(0.0, 0.0, 0.0, 0.0, 0.0, 0.0, 0.0, 0.0, 0.0)",-0.283,-0.074,-10.309,"(0.0, 0.0, 0.0, 0.0, 0.0, 0.0, 0.0, 0.0, 0.0)",0,0,0,,0.5397,-0.0736,0.3911,"(0.0, 0.0, 0.0, 0.0, 0.0, 0.0, 0.0, 0.0, 0.0)","b'$VNYMR,+006.071,-001.649,+000.394,+00.5397,-00.0736,+00.3911,-00.283,-00.074,-10.309,-00.000320,+00.000871,+00.000234*61\r\n'"
2023/03/05/23:40:31.236306,0,1678077624,147241353,imu1_frame,0,0,0,,0.004203363799590224,-0.0141782372879324,0.052998400261525226,0.9984850919717803,"(0.0, 0.0, 0.0, 0.0, 0.0, 0.0, 0.0, 0.0, 0.0)",-0.001201,-0.000131,0.000329,"(0.0, 0.0, 0.0, 0.0, 0.0, 0.0, 0.0, 0.0, 0.0)",-0.32,-0.094,-10.293,"(0.0, 0.0, 0.0, 0.0, 0.0, 0.0, 0.0, 0.0, 0.0)",0,0,0,,0.5408,-0.0736,0.3861,"(0.0, 0.0, 0.0, 0.0, 0.0, 0.0, 0.0, 0.0, 0.0)","b'$VNYMR,+006.071,-001.648,+000.395,+00.5408,-00.0736,+00.3861,-00.320,-00.094,-10.293,-00.001201,-00.000131,+00.000329*67\r\n'"
2023/03/05/23:40:31.236341,0,1678077624,147241353,imu1_frame,0,0,0,,0.004212538858672779,-0.014186488260365969,0.05299854745191742,0.9984849282964613,"(0.0, 0.0, 0.0, 0.0, 0.0, 0.0, 0.0, 0.0, 0.0)",-0.000216,0.001689,-0.00024,"(0.0, 0.0, 0.0, 0.0, 0.0, 0.0, 0.0, 0.0, 0.0)",-0.323,-0.07,-10.272,"(0.0, 0.0, 0.0, 0.0, 0.0, 0.0, 0.0, 0.0, 0.0)",0,0,0,,0.543,-0.0713,0.3874,"(0.0, 0.0, 0.0, 0.0, 0.0, 0.0, 0.0, 0.0, 0.0)","b'$VNYMR,+006.071,-001.649,+000.396,+00.5430,-00.0713,+00.3874,-00.323,-00.070,-10.272,-00.000216,+00.001689,-00.000240*67\r\n'"
2023/03/05/23:40:31.280139,0,1678077624,147241353,imu1_frame,0,0,0,,0.004196958546366456,-0.014222267133238252,0.05299839305003555,0.9984844931147729,"(0.0, 0.0, 0.0, 0.0, 0.0, 0.0, 0.0, 0.0, 0.0)",0.000319,-0.001085,-0.000669,"(0.0, 0.0, 0.0, 0.0, 0.0, 0.0, 0.0, 0.0, 0.0)",-0.316,-0.078,-10.276,"(0.0, 0.0, 0.0, 0.0, 0.0, 0.0, 0.0, 0.0, 0.0)",0,0,0,,0.5419,-0.0736,0.3874,"(0.0, 0.0, 0.0, 0.0, 0.0, 0.0, 0.0, 0.0, 0.0)","b'$VNYMR,+006.071,-001.653,+000.394,+00.5419,-00.0736,+00.3874,-00.316,-00.078,-10.276,+00.000319,-00.001085,-00.000669*63\r\n'"
2023/03/05/23:40:31.280246,0,1678077624,147241353,imu1_frame,0,0,0,,0.004179566243947408,-0.01421433277405179,0.05303297533149555,0.99848284286576,"(0.0, 0.0, 0.0, 0.0, 0.0, 0.0, 0.0, 0.0, 0.0)",0.001546,0.002081,-0.000808,"(0.0, 0.0, 0.0, 0.0, 0.0, 0.0, 0.0, 0.0, 0.0)",-0.271,-0.07,-10.321,"(0.0, 0.0, 0.0, 0.0, 0.0, 0.0, 0.0, 0.0, 0.0)",0,0,0,,0.5408,-0.0713,0.3848,"(0.0, 0.0, 0.0, 0.0, 0.0, 0.0, 0.0, 0.0, 0.0)","b'$VNYMR,+006.075,-001.652,+000.392,+00.5408,-00.0713,+00.3848,-00.271,-00.070,-10.321,+00.001546,+00.002081,-00.000808*66\r\n'"
2023/03/05/23:40:31.328198,0,1678077624,147241353,imu1_frame,0,0,0,,0.004169590830106781,-0.014188618825525733,0.05304149548048341,0.9984827977313016,"(0.0, 0.0, 0.0, 0.0, 0.0, 0.0, 0.0, 0.0, 0.0)",-0.00044,0.001191,-3.7e-05,"(0.0, 0.0, 0.0, 0.0, 0.0, 0.0, 0.0, 0.0, 0.0)",-0.254,-0.063,-10.274,"(0.0, 0.0, 0.0, 0.0, 0.0, 0.0, 0.0, 0.0, 0.0)",0,0,0,,0.5408,-0.0736,0.3886,"(0.0, 0.0, 0.0, 0.0, 0.0, 0.0, 0.0, 0.0, 0.0)","b'$VNYMR,+006.076,-001.649,+000.391,+00.5408,-00.0736,+00.3886,-00.254,-00.063,-10.274,-00.000440,+00.001191,-00.000037*6A\r\n'"
2023/03/05/23:40:31.372164,0,1678077624,147241353,imu1_frame,0,0,0,,0.004187141452635043,-0.01418765653546634,0.053050456514035824,0.9984822618915868,"(0.0, 0.0, 0.0, 0.0, 0.0, 0.0, 0.0, 0.0, 0.0)",0.000275,-0.001476,0.000841,"(0.0, 0.0, 0.0, 0.0, 0.0, 0.0, 0.0, 0.0, 0.0)",-0.3,-0.103,-10.262,"(0.0, 0.0, 0.0, 0.0, 0.0, 0.0, 0.0, 0.0, 0.0)",0,0,0,,0.543,-0.0748,0.3875,"(0.0, 0.0, 0.0, 0.0, 0.0, 0.0, 0.0, 0.0, 0.0)","b'$VNYMR,+006.077,-001.649,+000.393,+00.5430,-00.0748,+00.3875,-00.300,-00.103,-10.262,+00.000275,-00.001476,+00.000841*64\r\n'"
2023/03/05/23:40:31.372209,0,1678077624,147241353,imu1_frame,0,0,0,,0.00421516402567656,-0.014212260879338655,0.053085751832007824,0.9984799181682947,"(0.0, 0.0, 0.0, 0.0, 0.0, 0.0, 0.0, 0.0, 0.0)",-0.001126,-0.000601,0.000184,"(0.0, 0.0, 0.0, 0.0, 0.0, 0.0, 0.0, 0.0, 0.0)",-0.3,-0.093,-10.253,"(0.0, 0.0, 0.0, 0.0, 0.0, 0.0, 0.0, 0.0, 0.0)",0,0,0,,0.543,-0.0713,0.3862,"(0.0, 0.0, 0.0, 0.0, 0.0, 0.0, 0.0, 0.0, 0.0)","b'$VNYMR,+006.081,-001.652,+000.396,+00.5430,-00.0713,+00.3862,-00.300,-00.093,-10.253,-00.001126,-00.000601,+00.000184*61\r\n'"
2023/03/05/23:40:31.416188,0,1678077624,147241353,imu1_frame,0,0,0,,0.004205740343489755,-0.014204084117647222,0.053068177666877936,0.9984810084631849,"(0.0, 0.0, 0.0, 0.0, 0.0, 0.0, 0.0, 0.0, 0.0)",-0.000592,0.001992,-0.000152,"(0.0, 0.0, 0.0, 0.0, 0.0, 0.0, 0.0, 0.0, 0.0)",-0.291,-0.061,-10.273,"(0.0, 0.0, 0.0, 0.0, 0.0, 0.0, 0.0, 0.0, 0.0)",0,0,0,,0.5419,-0.0737,0.3849,"(0.0, 0.0, 0.0, 0.0, 0.0, 0.0, 0.0, 0.0, 0.0)","b'$VNYMR,+006.079,-001.651,+000.395,+00.5419,-00.0737,+00.3849,-00.291,-00.061,-10.273,-00.000592,+00.001992,-00.000152*61\r\n'"
2023/03/05/23:40:31.416219,0,1678077624,147241353,imu1_frame,0,0,0,,0.004178675679742634,-0.01418804655800602,0.0530677594969049,0.9984813723382174,"(0.0, 0.0, 0.0, 0.0, 0.0, 0.0, 0.0, 0.0, 0.0)",-0.00058,0.000704,0.000257,"(0.0, 0.0, 0.0, 0.0, 0.0, 0.0, 0.0, 0.0, 0.0)",-0.267,-0.056,-10.274,"(0.0, 0.0, 0.0, 0.0, 0.0, 0.0, 0.0, 0.0, 0.0)",0,0,0,,0.5453,-0.0737,0.3825,"(0.0, 0.0, 0.0, 0.0, 0.0, 0.0, 0.0, 0.0, 0.0)","b'$VNYMR,+006.079,-001.649,+000.392,+00.5453,-00.0737,+00.3825,-00.267,-00.056,-10.274,-00.000580,+00.000704,+00.000257*62\r\n'"
2023/03/05/23:40:31.460236,0,1678077624,147241353,imu1_frame,0,0,0,,0.004160695404080894,-0.014171436959537091,0.05309360603051355,0.9984803092634991,"(0.0, 0.0, 0.0, 0.0, 0.0, 0.0, 0.0, 0.0, 0.0)",0.000251,-0.000532,-0.000125,"(0.0, 0.0, 0.0, 0.0, 0.0, 0.0, 0.0, 0.0, 0.0)",-0.297,-0.068,-10.316,"(0.0, 0.0, 0.0, 0.0, 0.0, 0.0, 0.0, 0.0, 0.0)",0,0,0,,0.543,-0.0725,0.3849,"(0.0, 0.0, 0.0, 0.0, 0.0, 0.0, 0.0, 0.0, 0.0)","b'$VNYMR,+006.082,-001.647,+000.390,+00.5430,-00.0725,+00.3849,-00.297,-00.068,-10.316,+00.000251,-00.000532,-00.000125*6D\r\n'"
2023/03/05/23:40:31.460263,0,1678077624,147241353,imu1_frame,0,0,0,,0.004161744177689039,-0.01418882749934219,0.05310236540583247,0.998479592103864,"(0.0, 0.0, 0.0, 0.0, 0.0, 0.0, 0.0, 0.0, 0.0)",0.000916,-0.002098,0.00117,"(0.0, 0.0, 0.0, 0.0, 0.0, 0.0, 0.0, 0.0, 0.0)",-0.291,-0.085,-10.215,"(0.0, 0.0, 0.0, 0.0, 0.0, 0.0, 0.0, 0.0, 0.0)",0,0,0,,0.5419,-0.0736,0.3874,"(0.0, 0.0, 0.0, 0.0, 0.0, 0.0, 0.0, 0.0, 0.0)","b'$VNYMR,+006.083,-001.649,+000.390,+00.5419,-00.0736,+00.3874,-00.291,-00.085,-10.215,+00.000916,-00.002098,+00.001170*6A\r\n'"
2023/03/05/23:40:31.504136,0,1678077624,147241353,imu1_frame,0,0,0,,0.004162545307955689,-0.014206290669883104,0.053093698004538184,0.9984798013751529,"(0.0, 0.0, 0.0, 0.0, 0.0, 0.0, 0.0, 0.0, 0.0)",-0.000626,-0.001618,0.000489,"(0.0, 0.0, 0.0, 0.0, 0.0, 0.0, 0.0, 0.0, 0.0)",-0.327,-0.077,-10.283,"(0.0, 0.0, 0.0, 0.0, 0.0, 0.0, 0.0, 0.0, 0.0)",0,0,0,,0.5453,-0.0643,0.3862,"(0.0, 0.0, 0.0, 0.0, 0.0, 0.0, 0.0, 0.0, 0.0)","b'$VNYMR,+006.082,-001.651,+000.390,+00.5453,-00.0643,+00.3862,-00.327,-00.077,-10.283,-00.000626,-00.001618,+00.000489*63\r\n'"
2023/03/05/23:40:31.504240,0,1678077624,147241353,imu1_frame,0,0,0,,0.004171721161887987,-0.01421454076410364,0.05309384503522671,0.9984796378458544,"(0.0, 0.0, 0.0, 0.0, 0.0, 0.0, 0.0, 0.0, 0.0)",-0.000158,-0.001148,0.000662,"(0.0, 0.0, 0.0, 0.0, 0.0, 0.0, 0.0, 0.0, 0.0)",-0.282,-0.097,-10.24,"(0.0, 0.0, 0.0, 0.0, 0.0, 0.0, 0.0, 0.0, 0.0)",0,0,0,,0.5408,-0.0748,0.3861,"(0.0, 0.0, 0.0, 0.0, 0.0, 0.0, 0.0, 0.0, 0.0)","b'$VNYMR,+006.082,-001.652,+000.391,+00.5408,-00.0748,+00.3861,-00.282,-00.097,-10.240,-00.000158,-00.001148,+00.000662*62\r\n'"
2023/03/05/23:40:31.548263,0,1678077624,147241353,imu1_frame,0,0,0,,0.004196688591691823,-0.014195797164582144,0.053076743805881565,0.9984807090849032,"(0.0, 0.0, 0.0, 0.0, 0.0, 0.0, 0.0, 0.0, 0.0)",-0.000193,-0.002131,0.000547,"(0.0, 0.0, 0.0, 0.0, 0.0, 0.0, 0.0, 0.0, 0.0)",-0.28,-0.09,-10.268,"(0.0, 0.0, 0.0, 0.0, 0.0, 0.0, 0.0, 0.0, 0.0)",0,0,0,,0.5442,-0.069,0.3875,"(0.0, 0.0, 0.0, 0.0, 0.0, 0.0, 0.0, 0.0, 0.0)","b'$VNYMR,+006.080,-001.650,+000.394,+00.5442,-00.0690,+00.3875,-00.280,-00.090,-10.268,-00.000193,-00.002131,+00.000547*69\r\n'"
2023/03/05/23:40:31.592164,0,1678077624,147241353,imu1_frame,0,0,0,,0.004187174295958485,-0.014178796936455964,0.05308528686294147,0.9984805364189777,"(0.0, 0.0, 0.0, 0.0, 0.0, 0.0, 0.0, 0.0, 0.0)",-0.00018,0.000105,-0.000348,"(0.0, 0.0, 0.0, 0.0, 0.0, 0.0, 0.0, 0.0, 0.0)",-0.285,-0.043,-10.276,"(0.0, 0.0, 0.0, 0.0, 0.0, 0.0, 0.0, 0.0, 0.0)",0,0,0,,0.5419,-0.0771,0.3887,"(0.0, 0.0, 0.0, 0.0, 0.0, 0.0, 0.0, 0.0, 0.0)","b'$VNYMR,+006.081,-001.648,+000.393,+00.5419,-00.0771,+00.3887,-00.285,-00.043,-10.276,-00.000180,+00.000105,-00.000348*61\r\n'"
2023/03/05/23:40:31.592195,0,1678077624,147241353,imu1_frame,0,0,0,,0.00416965611789185,-0.014170900857809416,0.05311115645780033,0.9984793461040903,"(0.0, 0.0, 0.0, 0.0, 0.0, 0.0, 0.0, 0.0, 0.0)",-4.1e-05,3.8e-05,0.000145,"(0.0, 0.0, 0.0, 0.0, 0.0, 0.0, 0.0, 0.0, 0.0)",-0.298,-0.043,-10.286,"(0.0, 0.0, 0.0, 0.0, 0.0, 0.0, 0.0, 0.0, 0.0)",0,0,0,,0.543,-0.076,0.3888,"(0.0, 0.0, 0.0, 0.0, 0.0, 0.0, 0.0, 0.0, 0.0)","b'$VNYMR,+006.084,-001.647,+000.391,+00.5430,-00.0760,+00.3888,-00.298,-00.043,-10.286,-00.000041,+00.000038,+00.000145*64\r\n'"
2023/03/05/23:40:31.636295,0,1678077624,147241353,imu1_frame,0,0,0,,0.004135141486182404,-0.014181504286465075,0.053101971158696144,0.9984798276380566,"(0.0, 0.0, 0.0, 0.0, 0.0, 0.0, 0.0, 0.0, 0.0)",-0.000112,-0.000494,0.000357,"(0.0, 0.0, 0.0, 0.0, 0.0, 0.0, 0.0, 0.0, 0.0)",-0.309,-0.052,-10.255,"(0.0, 0.0, 0.0, 0.0, 0.0, 0.0, 0.0, 0.0, 0.0)",0,0,0,,0.5408,-0.0701,0.3873,"(0.0, 0.0, 0.0, 0.0, 0.0, 0.0, 0.0, 0.0, 0.0)","b'$VNYMR,+006.083,-001.648,+000.387,+00.5408,-00.0701,+00.3873,-00.309,-00.052,-10.255,-00.000112,-00.000494,+00.000357*66\r\n'"
2023/03/05/23:40:31.636328,0,1678077624,147241353,imu1_frame,0,0,0,,0.0041357278745243874,-0.014190181620661125,0.05311070730212314,0.9984792372755623,"(0.0, 0.0, 0.0, 0.0, 0.0, 0.0, 0.0, 0.0, 0.0)",-8.3e-05,-0.002294,-0.000751,"(0.0, 0.0, 0.0, 0.0, 0.0, 0.0, 0.0, 0.0, 0.0)",-0.29,-0.079,-10.26,"(0.0, 0.0, 0.0, 0.0, 0.0, 0.0, 0.0, 0.0, 0.0)",0,0,0,,0.5419,-0.0748,0.3862,"(0.0, 0.0, 0.0, 0.0, 0.0, 0.0, 0.0, 0.0, 0.0)","b'$VNYMR,+006.084,-001.649,+000.387,+00.5419,-00.0748,+00.3862,-00.290,-00.079,-10.260,-00.000083,-00.002294,-00.000751*6A\r\n'"
2023/03/05/23:40:31.680326,0,1678077624,147241353,imu1_frame,0,0,0,,0.004161991818812017,-0.014188754861042586,0.053119792154139804,0.99847866514067,"(0.0, 0.0, 0.0, 0.0, 0.0, 0.0, 0.0, 0.0, 0.0)",-0.00056,-0.001239,-0.001042,"(0.0, 0.0, 0.0, 0.0, 0.0, 0.0, 0.0, 0.0, 0.0)",-0.273,-0.109,-10.279,"(0.0, 0.0, 0.0, 0.0, 0.0, 0.0, 0.0, 0.0, 0.0)",0,0,0,,0.543,-0.0748,0.3875,"(0.0, 0.0, 0.0, 0.0, 0.0, 0.0, 0.0, 0.0, 0.0)","b'$VNYMR,+006.085,-001.649,+000.390,+00.5430,-00.0748,+00.3875,-00.273,-00.109,-10.279,-00.000560,-00.001239,-00.001042*6B\r\n'"
2023/03/05/23:40:31.680354,0,1678077624,147241353,imu1_frame,0,0,0,,0.004169779782172051,-0.014170864470155862,0.05311986983182923,0.9984788825837962,"(0.0, 0.0, 0.0, 0.0, 0.0, 0.0, 0.0, 0.0, 0.0)",0.000912,0.001728,-0.001383,"(0.0, 0.0, 0.0, 0.0, 0.0, 0.0, 0.0, 0.0, 0.0)",-0.283,-0.068,-10.278,"(0.0, 0.0, 0.0, 0.0, 0.0, 0.0, 0.0, 0.0, 0.0)",0,0,0,,0.5408,-0.0748,0.3861,"(0.0, 0.0, 0.0, 0.0, 0.0, 0.0, 0.0, 0.0, 0.0)","b'$VNYMR,+006.085,-001.647,+000.391,+00.5408,-00.0748,+00.3861,-00.283,-00.068,-10.278,+00.000912,+00.001728,-00.001383*60\r\n'"
2023/03/05/23:40:31.724137,0,1678077624,147241353,imu1_frame,0,0,0,,0.004169903446134705,-0.014170828081423135,0.05312858320181284,0.9984784189874636,"(0.0, 0.0, 0.0, 0.0, 0.0, 0.0, 0.0, 0.0, 0.0)",0.001206,0.000681,0.000502,"(0.0, 0.0, 0.0, 0.0, 0.0, 0.0, 0.0, 0.0, 0.0)",-0.307,-0.086,-10.281,"(0.0, 0.0, 0.0, 0.0, 0.0, 0.0, 0.0, 0.0, 0.0)",0,0,0,,0.5419,-0.076,0.3912,"(0.0, 0.0, 0.0, 0.0, 0.0, 0.0, 0.0, 0.0, 0.0)","b'$VNYMR,+006.086,-001.647,+000.391,+00.5419,-00.0760,+00.3912,-00.307,-00.086,-10.281,+00.001206,+00.000681,+00.000502*63\r\n'"
2023/03/05/23:40:31.768186,0,1678077624,147241353,imu1_frame,0,0,0,,0.004153649919991013,-0.01418910968069977,0.053145808424942105,0.9984773104110429,"(0.0, 0.0, 0.0, 0.0, 0.0, 0.0, 0.0, 0.0, 0.0)",-1.2e-05,-0.00041,0.000247,"(0.0, 0.0, 0.0, 0.0, 0.0, 0.0, 0.0, 0.0, 0.0)",-0.283,-0.049,-10.291,"(0.0, 0.0, 0.0, 0.0, 0.0, 0.0, 0.0, 0.0, 0.0)",0,0,0,,0.5441,-0.076,0.385,"(0.0, 0.0, 0.0, 0.0, 0.0, 0.0, 0.0, 0.0, 0.0)","b'$VNYMR,+006.088,-001.649,+000.389,+00.5441,-00.0760,+00.3850,-00.283,-00.049,-10.291,-00.000012,-00.000410,+00.000247*65\r\n'"
2023/03/05/23:40:31.768241,0,1678077624,147241353,imu1_frame,0,0,0,,0.004135884022341756,-0.014181287751523568,0.0531542513674023,0.9984770458566553,"(0.0, 0.0, 0.0, 0.0, 0.0, 0.0, 0.0, 0.0, 0.0)",3.8e-05,0.000353,0.001481,"(0.0, 0.0, 0.0, 0.0, 0.0, 0.0, 0.0, 0.0, 0.0)",-0.294,-0.051,-10.317,"(0.0, 0.0, 0.0, 0.0, 0.0, 0.0, 0.0, 0.0, 0.0)",0,0,0,,0.5397,-0.0724,0.3886,"(0.0, 0.0, 0.0, 0.0, 0.0, 0.0, 0.0, 0.0, 0.0)","b'$VNYMR,+006.089,-001.648,+000.387,+00.5397,-00.0724,+00.3886,-00.294,-00.051,-10.317,+00.000038,+00.000353,+00.001481*69\r\n'"
2023/03/05/23:40:31.816175,0,1678077624,147241353,imu1_frame,0,0,0,,0.004153063239062464,-0.01418043251945325,0.05313707215068159,0.9984779010887255,"(0.0, 0.0, 0.0, 0.0, 0.0, 0.0, 0.0, 0.0, 0.0)",0.000356,-2.9e-05,0.000748,"(0.0, 0.0, 0.0, 0.0, 0.0, 0.0, 0.0, 0.0, 0.0)",-0.29,-0.076,-10.32,"(0.0, 0.0, 0.0, 0.0, 0.0, 0.0, 0.0, 0.0, 0.0)",0,0,0,,0.543,-0.0725,0.3862,"(0.0, 0.0, 0.0, 0.0, 0.0, 0.0, 0.0, 0.0, 0.0)","b'$VNYMR,+006.087,-001.648,+000.389,+00.5430,-00.0725,+00.3862,-00.290,-00.076,-10.320,+00.000356,-00.000029,+00.000748*69\r\n'"
2023/03/05/23:40:31.816205,0,1678077624,147241353,imu1_frame,0,0,0,,0.004161437413081212,-0.01417121908660937,0.05314588626444904,0.9984775279200941,"(0.0, 0.0, 0.0, 0.0, 0.0, 0.0, 0.0, 0.0, 0.0)",-0.000628,0.002204,0.001113,"(0.0, 0.0, 0.0, 0.0, 0.0, 0.0, 0.0, 0.0, 0.0)",-0.294,-0.088,-10.279,"(0.0, 0.0, 0.0, 0.0, 0.0, 0.0, 0.0, 0.0, 0.0)",0,0,0,,0.5419,-0.0783,0.385,"(0.0, 0.0, 0.0, 0.0, 0.0, 0.0, 0.0, 0.0, 0.0)","b'$VNYMR,+006.088,-001.647,+000.390,+00.5419,-00.0783,+00.3850,-00.294,-00.088,-10.279,-00.000628,+00.002204,+00.001113*65\r\n'"
2023/03/05/23:40:31.860340,0,1678077624,147241353,imu1_frame,0,0,0,,0.004170984920871135,-0.014179359514228345,0.053172173056674286,0.9984759730013474,"(0.0, 0.0, 0.0, 0.0, 0.0, 0.0, 0.0, 0.0, 0.0)",-0.000296,0.001992,0.000774,"(0.0, 0.0, 0.0, 0.0, 0.0, 0.0, 0.0, 0.0, 0.0)",-0.326,-0.087,-10.268,"(0.0, 0.0, 0.0, 0.0, 0.0, 0.0, 0.0, 0.0, 0.0)",0,0,0,,0.543,-0.0666,0.3836,"(0.0, 0.0, 0.0, 0.0, 0.0, 0.0, 0.0, 0.0, 0.0)","b'$VNYMR,+006.091,-001.648,+000.391,+00.5430,-00.0666,+00.3836,-00.326,-00.087,-10.268,-00.000296,+00.001992,+00.000774*65\r\n'"
2023/03/05/23:40:31.860375,0,1678077624,147241353,imu1_frame,0,0,0,,0.004172498364237072,-0.014205463274339462,0.05318095557058298,0.9984751279001203,"(0.0, 0.0, 0.0, 0.0, 0.0, 0.0, 0.0, 0.0, 0.0)",-0.001072,0.002248,0.00105,"(0.0, 0.0, 0.0, 0.0, 0.0, 0.0, 0.0, 0.0, 0.0)",-0.316,-0.051,-10.289,"(0.0, 0.0, 0.0, 0.0, 0.0, 0.0, 0.0, 0.0, 0.0)",0,0,0,,0.543,-0.0748,0.385,"(0.0, 0.0, 0.0, 0.0, 0.0, 0.0, 0.0, 0.0, 0.0)","b'$VNYMR,+006.092,-001.651,+000.391,+00.5430,-00.0748,+00.3850,-00.316,-00.051,-10.289,-00.001072,+00.002248,+00.001050*62\r\n'"
2023/03/05/23:40:31.904205,0,1678077624,147241353,imu1_frame,0,0,0,,0.0041458951069890445,-0.014198142157658997,0.053180560829925866,0.9984753638737649,"(0.0, 0.0, 0.0, 0.0, 0.0, 0.0, 0.0, 0.0, 0.0)",-0.000949,0.001156,-0.000821,"(0.0, 0.0, 0.0, 0.0, 0.0, 0.0, 0.0, 0.0, 0.0)",-0.289,-0.055,-10.268,"(0.0, 0.0, 0.0, 0.0, 0.0, 0.0, 0.0, 0.0, 0.0)",0,0,0,,0.543,-0.0701,0.3862,"(0.0, 0.0, 0.0, 0.0, 0.0, 0.0, 0.0, 0.0, 0.0)","b'$VNYMR,+006.092,-001.650,+000.388,+00.5430,-00.0701,+00.3862,-00.289,-00.055,-10.268,-00.000949,+00.001156,-00.000821*6D\r\n'"
2023/03/05/23:40:31.904784,0,1678077624,147241353,imu1_frame,0,0,0,,0.004144876411520763,-0.014171893485500301,0.0532066323484466,0.9984743520535247,"(0.0, 0.0, 0.0, 0.0, 0.0, 0.0, 0.0, 0.0, 0.0)",0.000896,0.00232,0.001506,"(0.0, 0.0, 0.0, 0.0, 0.0, 0.0, 0.0, 0.0, 0.0)",-0.267,-0.067,-10.288,"(0.0, 0.0, 0.0, 0.0, 0.0, 0.0, 0.0, 0.0, 0.0)",0,0,0,,0.5408,-0.0748,0.3874,"(0.0, 0.0, 0.0, 0.0, 0.0, 0.0, 0.0, 0.0, 0.0)","b'$VNYMR,+006.095,-001.647,+000.388,+00.5408,-00.0748,+00.3874,-00.267,-00.067,-10.288,+00.000896,+00.002320,+00.001506*68\r\n'"
2023/03/05/23:40:31.948225,0,1678077624,147241353,imu1_frame,0,0,0,,0.004161592432011772,-0.014162324110306764,0.0531894300233234,0.9984753348270643,"(0.0, 0.0, 0.0, 0.0, 0.0, 0.0, 0.0, 0.0, 0.0)",-0.000145,-0.000488,6.5e-05,"(0.0, 0.0, 0.0, 0.0, 0.0, 0.0, 0.0, 0.0, 0.0)",-0.306,-0.091,-10.246,"(0.0, 0.0, 0.0, 0.0, 0.0, 0.0, 0.0, 0.0, 0.0)",0,0,0,,0.543,-0.0725,0.3875,"(0.0, 0.0, 0.0, 0.0, 0.0, 0.0, 0.0, 0.0, 0.0)","b'$VNYMR,+006.093,-001.646,+000.390,+00.5430,-00.0725,+00.3875,-00.306,-00.091,-10.246,-00.000145,-00.000488,+00.000065*6B\r\n'"
2023/03/05/23:40:31.996221,0,1678077624,147241353,imu1_frame,0,0,0,,0.004178987791778202,-0.014170255045743194,0.05315484694831231,0.998476991311706,"(0.0, 0.0, 0.0, 0.0, 0.0, 0.0, 0.0, 0.0, 0.0)",1e-06,9e-06,-0.000626,"(0.0, 0.0, 0.0, 0.0, 0.0, 0.0, 0.0, 0.0, 0.0)",-0.32,-0.079,-10.255,"(0.0, 0.0, 0.0, 0.0, 0.0, 0.0, 0.0, 0.0, 0.0)",0,0,0,,0.5408,-0.0759,0.3899,"(0.0, 0.0, 0.0, 0.0, 0.0, 0.0, 0.0, 0.0, 0.0)","b'$VNYMR,+006.089,-001.647,+000.392,+00.5408,-00.0759,+00.3899,-00.320,-00.079,-10.255,+00.000001,+00.000009,-00.000626*6A\r\n'"
2023/03/05/23:40:31.996258,0,1678077624,147241353,imu1_frame,0,0,0,,0.0041795423703896205,-0.014187791270762935,0.053128753153989086,0.9984781287503166,"(0.0, 0.0, 0.0, 0.0, 0.0, 0.0, 0.0, 0.0, 0.0)",-0.000564,0.000413,-0.000172,"(0.0, 0.0, 0.0, 0.0, 0.0, 0.0, 0.0, 0.0, 0.0)",-0.292,-0.074,-10.24,"(0.0, 0.0, 0.0, 0.0, 0.0, 0.0, 0.0, 0.0, 0.0)",0,0,0,,0.543,-0.076,0.3812,"(0.0, 0.0, 0.0, 0.0, 0.0, 0.0, 0.0, 0.0, 0.0)","b'$VNYMR,+006.086,-001.649,+000.392,+00.5430,-00.0760,+00.3812,-00.292,-00.074,-10.240,-00.000564,+00.000413,-00.000172*61\r\n'"
2023/03/05/23:40:32.044218,0,1678077624,147241353,imu1_frame,0,0,0,,0.0041695324532941115,-0.014170937244383794,0.05310244307972679,0.9984798095483459,"(0.0, 0.0, 0.0, 0.0, 0.0, 0.0, 0.0, 0.0, 0.0)",7.1e-05,-0.001421,-7.9e-05,"(0.0, 0.0, 0.0, 0.0, 0.0, 0.0, 0.0, 0.0, 0.0)",-0.301,-0.035,-10.26,"(0.0, 0.0, 0.0, 0.0, 0.0, 0.0, 0.0, 0.0, 0.0)",0,0,0,,0.543,-0.076,0.3862,"(0.0, 0.0, 0.0, 0.0, 0.0, 0.0, 0.0, 0.0, 0.0)","b'$VNYMR,+006.083,-001.647,+000.391,+00.5430,-00.0760,+00.3862,-00.301,-00.035,-10.260,+00.000071,-00.001421,-00.000079*69\r\n'"
2023/03/05/23:40:32.044259,0,1678077624,147241353,imu1_frame,0,0,0,,0.004169037791727972,-0.014171082779889493,0.053067589526999394,0.998481662564982,"(0.0, 0.0, 0.0, 0.0, 0.0, 0.0, 0.0, 0.0, 0.0)",0.000579,-0.000712,0.000333,"(0.0, 0.0, 0.0, 0.0, 0.0, 0.0, 0.0, 0.0, 0.0)",-0.281,-0.087,-10.24,"(0.0, 0.0, 0.0, 0.0, 0.0, 0.0, 0.0, 0.0, 0.0)",0,0,0,,0.5442,-0.0655,0.3849,"(0.0, 0.0, 0.0, 0.0, 0.0, 0.0, 0.0, 0.0, 0.0)","b'$VNYMR,+006.079,-001.647,+000.391,+00.5442,-00.0655,+00.3849,-00.281,-00.087,-10.240,+00.000579,-00.000712,+00.000333*61\r\n'"
2023/03/05/23:40:32.088162,0,1678077624,147241353,imu1_frame,0,0,0,,0.004167157293988243,-0.014145087919933508,0.053032666635299756,0.9984838944907293,"(0.0, 0.0, 0.0, 0.0, 0.0, 0.0, 0.0, 0.0, 0.0)",-0.001113,-0.000124,-0.000216,"(0.0, 0.0, 0.0, 0.0, 0.0, 0.0, 0.0, 0.0, 0.0)",-0.308,-0.065,-10.293,"(0.0, 0.0, 0.0, 0.0, 0.0, 0.0, 0.0, 0.0, 0.0)",0,0,0,,0.5407,-0.0783,0.3836,"(0.0, 0.0, 0.0, 0.0, 0.0, 0.0, 0.0, 0.0, 0.0)","b'$VNYMR,+006.075,-001.644,+000.391,+00.5407,-00.0783,+00.3836,-00.308,-00.065,-10.293,-00.001113,-00.000124,-00.000216*63\r\n'"
2023/03/05/23:40:32.088202,0,1678077624,147241353,imu1_frame,0,0,0,,0.004176456163503353,-0.014153302136430755,0.05304152665627522,0.9984832686142122,"(0.0, 0.0, 0.0, 0.0, 0.0, 0.0, 0.0, 0.0, 0.0)",0.000137,-0.001172,0.000478,"(0.0, 0.0, 0.0, 0.0, 0.0, 0.0, 0.0, 0.0, 0.0)",-0.294,-0.092,-10.24,"(0.0, 0.0, 0.0, 0.0, 0.0, 0.0, 0.0, 0.0, 0.0)",0,0,0,,0.5453,-0.0737,0.385,"(0.0, 0.0, 0.0, 0.0, 0.0, 0.0, 0.0, 0.0, 0.0)","b'$VNYMR,+006.076,-001.645,+000.392,+00.5453,-00.0737,+00.3850,-00.294,-00.092,-10.240,+00.000137,-00.001172,+00.000478*65\r\n'"
2023/03/05/23:40:32.132172,0,1678077624,147241353,imu1_frame,0,0,0,,0.0041950543250328445,-0.014169730078082964,0.05305924710956162,0.9984820161449534,"(0.0, 0.0, 0.0, 0.0, 0.0, 0.0, 0.0, 0.0, 0.0)",5.8e-05,-0.001487,-0.000472,"(0.0, 0.0, 0.0, 0.0, 0.0, 0.0, 0.0, 0.0, 0.0)",-0.304,-0.095,-10.258,"(0.0, 0.0, 0.0, 0.0, 0.0, 0.0, 0.0, 0.0, 0.0)",0,0,0,,0.5452,-0.0761,0.3851,"(0.0, 0.0, 0.0, 0.0, 0.0, 0.0, 0.0, 0.0, 0.0)","b'$VNYMR,+006.078,-001.647,+000.394,+00.5452,-00.0761,+00.3851,-00.304,-00.095,-10.258,+00.000058,-00.001487,-00.000472*61\r\n'"
2023/03/05/23:40:32.132199,0,1678077624,147241353,imu1_frame,0,0,0,,0.00421272841473626,-0.014168730493540841,0.05307692119926502,0.9984810165604111,"(0.0, 0.0, 0.0, 0.0, 0.0, 0.0, 0.0, 0.0, 0.0)",0.000194,-0.000979,-0.000768,"(0.0, 0.0, 0.0, 0.0, 0.0, 0.0, 0.0, 0.0, 0.0)",-0.298,-0.068,-10.24,"(0.0, 0.0, 0.0, 0.0, 0.0, 0.0, 0.0, 0.0, 0.0)",0,0,0,,0.543,-0.0772,0.3837,"(0.0, 0.0, 0.0, 0.0, 0.0, 0.0, 0.0, 0.0, 0.0)","b'$VNYMR,+006.080,-001.647,+000.396,+00.5430,-00.0772,+00.3837,-00.298,-00.068,-10.240,+00.000194,-00.000979,-00.000768*69\r\n'"
2023/03/05/23:40:32.180177,0,1678077624,147241353,imu1_frame,0,0,0,,0.004221103053524383,-0.014159517037016432,0.05308573469403533,0.9984806433468225,"(0.0, 0.0, 0.0, 0.0, 0.0, 0.0, 0.0, 0.0, 0.0)",-0.001516,-0.000484,-0.000444,"(0.0, 0.0, 0.0, 0.0, 0.0, 0.0, 0.0, 0.0, 0.0)",-0.29,-0.076,-10.322,"(0.0, 0.0, 0.0, 0.0, 0.0, 0.0, 0.0, 0.0, 0.0)",0,0,0,,0.5441,-0.0725,0.385,"(0.0, 0.0, 0.0, 0.0, 0.0, 0.0, 0.0, 0.0, 0.0)","b'$VNYMR,+006.081,-001.646,+000.397,+00.5441,-00.0725,+00.3850,-00.290,-00.076,-10.322,-00.001516,-00.000484,-00.000444*64\r\n'"
2023/03/05/23:40:32.180205,0,1678077624,147241353,imu1_frame,0,0,0,,0.004185910608819475,-0.014152620106884875,0.05309393055216432,0.998480453506731,"(0.0, 0.0, 0.0, 0.0, 0.0, 0.0, 0.0, 0.0, 0.0)",7.2e-05,0.001403,0.001056,"(0.0, 0.0, 0.0, 0.0, 0.0, 0.0, 0.0, 0.0, 0.0)",-0.285,-0.033,-10.287,"(0.0, 0.0, 0.0, 0.0, 0.0, 0.0, 0.0, 0.0, 0.0)",0,0,0,,0.543,-0.0713,0.3862,"(0.0, 0.0, 0.0, 0.0, 0.0, 0.0, 0.0, 0.0, 0.0)","b'$VNYMR,+006.082,-001.645,+000.393,+00.5430,-00.0713,+00.3862,-00.285,-00.033,-10.287,+00.000072,+00.001403,+00.001056*61\r\n'"
2023/03/05/23:40:32.224188,0,1678077624,147241353,imu1_frame,0,0,0,,0.004159184531689081,-0.014145332961714236,0.05308482361774516,0.99848115267185,"(0.0, 0.0, 0.0, 0.0, 0.0, 0.0, 0.0, 0.0, 0.0)",0.001542,-0.000514,0.000407,"(0.0, 0.0, 0.0, 0.0, 0.0, 0.0, 0.0, 0.0, 0.0)",-0.282,-0.073,-10.287,"(0.0, 0.0, 0.0, 0.0, 0.0, 0.0, 0.0, 0.0, 0.0)",0,0,0,,0.5419,-0.0748,0.3849,"(0.0, 0.0, 0.0, 0.0, 0.0, 0.0, 0.0, 0.0, 0.0)","b'$VNYMR,+006.081,-001.644,+000.390,+00.5419,-00.0748,+00.3849,-00.282,-00.073,-10.287,+00.001542,-00.000514,+00.000407*69\r\n'"
2023/03/05/23:40:32.230154,0,1678077624,147241353,imu1_frame,0,0,0,,0.0041691934901593505,-0.014162187435797337,0.0531111333803597,0.9984794728905189,"(0.0, 0.0, 0.0, 0.0, 0.0, 0.0, 0.0, 0.0, 0.0)",-0.000542,-0.00015,0.000486,"(0.0, 0.0, 0.0, 0.0, 0.0, 0.0, 0.0, 0.0, 0.0)",-0.301,-0.097,-10.263,"(0.0, 0.0, 0.0, 0.0, 0.0, 0.0, 0.0, 0.0, 0.0)",0,0,0,,0.543,-0.069,0.3823,"(0.0, 0.0, 0.0, 0.0, 0.0, 0.0, 0.0, 0.0, 0.0)","b'$VNYMR,+006.084,-001.646,+000.391,+00.5430,-00.0690,+00.3823,-00.301,-00.097,-10.263,-00.000542,-00.000150,+00.000486*6C\r\n'"
2023/03/05/23:40:32.272197,0,1678077624,147241353,imu1_frame,0,0,0,,0.004178030451354534,-0.014161687493530035,0.0531199703415549,0.9984789729482516,"(0.0, 0.0, 0.0, 0.0, 0.0, 0.0, 0.0, 0.0, 0.0)",-0.000687,0.000214,-0.000427,"(0.0, 0.0, 0.0, 0.0, 0.0, 0.0, 0.0, 0.0, 0.0)",-0.298,-0.098,-10.256,"(0.0, 0.0, 0.0, 0.0, 0.0, 0.0, 0.0, 0.0, 0.0)",0,0,0,,0.5441,-0.0737,0.3812,"(0.0, 0.0, 0.0, 0.0, 0.0, 0.0, 0.0, 0.0, 0.0)","b'$VNYMR,+006.085,-001.646,+000.392,+00.5441,-00.0737,+00.3812,-00.298,-00.098,-10.256,-00.000687,+00.000214,-00.000427*6C\r\n'"
2023/03/05/23:40:32.316155,0,1678077624,147241353,imu1_frame,0,0,0,,0.004185571563451184,-0.01414387014958379,0.053102620697144796,0.9984801167789843,"(0.0, 0.0, 0.0, 0.0, 0.0, 0.0, 0.0, 0.0, 0.0)",-0.000182,0.000247,0.000337,"(0.0, 0.0, 0.0, 0.0, 0.0, 0.0, 0.0, 0.0, 0.0)",-0.267,-0.077,-10.319,"(0.0, 0.0, 0.0, 0.0, 0.0, 0.0, 0.0, 0.0, 0.0)",0,0,0,,0.5419,-0.076,0.3862,"(0.0, 0.0, 0.0, 0.0, 0.0, 0.0, 0.0, 0.0, 0.0)","b'$VNYMR,+006.083,-001.644,+000.393,+00.5419,-00.0760,+00.3862,-00.267,-00.077,-10.319,-00.000182,+00.000247,+00.000337*6E\r\n'"
2023/03/05/23:40:32.316189,0,1678077624,147241353,imu1_frame,0,0,0,,0.0041765189853712106,-0.014135583681285334,0.053111187482030774,0.998479816384589,"(0.0, 0.0, 0.0, 0.0, 0.0, 0.0, 0.0, 0.0, 0.0)",-0.000287,0.000418,0.000841,"(0.0, 0.0, 0.0, 0.0, 0.0, 0.0, 0.0, 0.0, 0.0)",-0.291,-0.062,-10.262,"(0.0, 0.0, 0.0, 0.0, 0.0, 0.0, 0.0, 0.0, 0.0)",0,0,0,,0.5442,-0.0702,0.3849,"(0.0, 0.0, 0.0, 0.0, 0.0, 0.0, 0.0, 0.0, 0.0)","b'$VNYMR,+006.084,-001.643,+000.392,+00.5442,-00.0702,+00.3849,-00.291,-00.062,-10.262,-00.000287,+00.000418,+00.000841*6C\r\n'"
2023/03/05/23:40:32.360155,0,1678077624,147241353,imu1_frame,0,0,0,,0.00415862959431931,-0.014127797217700175,0.053110917743884364,0.9984800156047566,"(0.0, 0.0, 0.0, 0.0, 0.0, 0.0, 0.0, 0.0, 0.0)",0.001164,0.000418,-0.000655,"(0.0, 0.0, 0.0, 0.0, 0.0, 0.0, 0.0, 0.0, 0.0)",-0.327,-0.077,-10.279,"(0.0, 0.0, 0.0, 0.0, 0.0, 0.0, 0.0, 0.0, 0.0)",0,0,0,,0.5419,-0.0772,0.3875,"(0.0, 0.0, 0.0, 0.0, 0.0, 0.0, 0.0, 0.0, 0.0)","b'$VNYMR,+006.084,-001.642,+000.390,+00.5419,-00.0772,+00.3875,-00.327,-00.077,-10.279,+00.001164,+00.000418,-00.000655*6F\r\n'"
2023/03/05/23:40:32.360184,0,1678077624,147241353,imu1_frame,0,0,0,,0.004142251542508845,-0.014146114881277313,0.05311943026447294,0.998479371501636,"(0.0, 0.0, 0.0, 0.0, 0.0, 0.0, 0.0, 0.0, 0.0)",0.000133,0.000206,-0.00091,"(0.0, 0.0, 0.0, 0.0, 0.0, 0.0, 0.0, 0.0, 0.0)",-0.295,-0.059,-10.25,"(0.0, 0.0, 0.0, 0.0, 0.0, 0.0, 0.0, 0.0, 0.0)",0,0,0,,0.5419,-0.0772,0.3849,"(0.0, 0.0, 0.0, 0.0, 0.0, 0.0, 0.0, 0.0, 0.0)","b'$VNYMR,+006.085,-001.644,+000.388,+00.5419,-00.0772,+00.3849,-00.295,-00.059,-10.250,+00.000133,+00.000206,-00.000910*65\r\n'"
2023/03/05/23:40:32.408164,0,1678077624,147241353,imu1_frame,0,0,0,,0.0041416342978633,-0.014146295607630808,0.053075863332555956,0.9984816883235406,"(0.0, 0.0, 0.0, 0.0, 0.0, 0.0, 0.0, 0.0, 0.0)",-0.000722,0.000978,0.000677,"(0.0, 0.0, 0.0, 0.0, 0.0, 0.0, 0.0, 0.0, 0.0)",-0.287,-0.102,-10.273,"(0.0, 0.0, 0.0, 0.0, 0.0, 0.0, 0.0, 0.0, 0.0)",0,0,0,,0.5396,-0.0725,0.381,"(0.0, 0.0, 0.0, 0.0, 0.0, 0.0, 0.0, 0.0, 0.0)","b'$VNYMR,+006.080,-001.644,+000.388,+00.5396,-00.0725,+00.3810,-00.287,-00.102,-10.273,-00.000722,+00.000978,+00.000677*69\r\n'"
2023/03/05/23:40:32.408195,0,1678077624,147241353,imu1_frame,0,0,0,,0.0041674041717107225,-0.014145015187163863,0.05305009345870853,0.9984829687440075,"(0.0, 0.0, 0.0, 0.0, 0.0, 0.0, 0.0, 0.0, 0.0)",-6e-06,0.001203,0.00088,"(0.0, 0.0, 0.0, 0.0, 0.0, 0.0, 0.0, 0.0, 0.0)",-0.288,-0.103,-10.327,"(0.0, 0.0, 0.0, 0.0, 0.0, 0.0, 0.0, 0.0, 0.0)",0,0,0,,0.5419,-0.076,0.3862,"(0.0, 0.0, 0.0, 0.0, 0.0, 0.0, 0.0, 0.0, 0.0)","b'$VNYMR,+006.077,-001.644,+000.391,+00.5419,-00.0760,+00.3862,-00.288,-00.103,-10.327,-00.000006,+00.001203,+00.000880*62\r\n'"
2023/03/05/23:40:32.452197,0,1678077624,147241353,imu1_frame,0,0,0,,0.00418461560041447,-0.01413530279995764,0.053067743886517936,0.9984820963671934,"(0.0, 0.0, 0.0, 0.0, 0.0, 0.0, 0.0, 0.0, 0.0)",0.000307,2.3e-05,-0.000144,"(0.0, 0.0, 0.0, 0.0, 0.0, 0.0, 0.0, 0.0, 0.0)",-0.29,-0.075,-10.268,"(0.0, 0.0, 0.0, 0.0, 0.0, 0.0, 0.0, 0.0, 0.0)",0,0,0,,0.5419,-0.0772,0.3862,"(0.0, 0.0, 0.0, 0.0, 0.0, 0.0, 0.0, 0.0, 0.0)","b'$VNYMR,+006.079,-001.643,+000.393,+00.5419,-00.0772,+00.3862,-00.290,-00.075,-10.268,+00.000307,+00.000023,-00.000144*6B\r\n'"
2023/03/05/23:40:32.456205,0,1678077624,147241353,imu1_frame,0,0,0,,0.004175902200203331,-0.014135765902848116,0.05306762053070996,0.9984821328468341,"(0.0, 0.0, 0.0, 0.0, 0.0, 0.0, 0.0, 0.0, 0.0)",-0.000715,-0.000426,-0.000327,"(0.0, 0.0, 0.0, 0.0, 0.0, 0.0, 0.0, 0.0, 0.0)",-0.311,-0.08,-10.297,"(0.0, 0.0, 0.0, 0.0, 0.0, 0.0, 0.0, 0.0, 0.0)",0,0,0,,0.5407,-0.0783,0.3874,"(0.0, 0.0, 0.0, 0.0, 0.0, 0.0, 0.0, 0.0, 0.0)","b'$VNYMR,+006.079,-001.643,+000.392,+00.5407,-00.0783,+00.3874,-00.311,-00.080,-10.297,-00.000715,-00.000426,-00.000327*6F\r\n'"
2023/03/05/23:40:32.500223,0,1678077624,147241353,imu1_frame,0,0,0,,0.004157611829690377,-0.014136946105829891,0.05300637990096112,0.9984854454164412,"(0.0, 0.0, 0.0, 0.0, 0.0, 0.0, 0.0, 0.0, 0.0)",0.00021,0.000507,-5.2e-05,"(0.0, 0.0, 0.0, 0.0, 0.0, 0.0, 0.0, 0.0, 0.0)",-0.306,-0.067,-10.304,"(0.0, 0.0, 0.0, 0.0, 0.0, 0.0, 0.0, 0.0, 0.0)",0,0,0,,0.543,-0.0749,0.3837,"(0.0, 0.0, 0.0, 0.0, 0.0, 0.0, 0.0, 0.0, 0.0)","b'$VNYMR,+006.072,-001.643,+000.390,+00.5430,-00.0749,+00.3837,-00.306,-00.067,-10.304,+00.000210,+00.000507,-00.000052*64\r\n'"
2023/03/05/23:40:32.548235,0,1678077624,147241353,imu1_frame,0,0,0,,0.004157150112054759,-0.014128232630907815,0.05300635687013629,0.9984855718922676,"(0.0, 0.0, 0.0, 0.0, 0.0, 0.0, 0.0, 0.0, 0.0)",-0.000602,0.001344,-0.000651,"(0.0, 0.0, 0.0, 0.0, 0.0, 0.0, 0.0, 0.0, 0.0)",-0.299,-0.057,-10.279,"(0.0, 0.0, 0.0, 0.0, 0.0, 0.0, 0.0, 0.0, 0.0)",0,0,0,,0.5441,-0.0749,0.385,"(0.0, 0.0, 0.0, 0.0, 0.0, 0.0, 0.0, 0.0, 0.0)","b'$VNYMR,+006.072,-001.642,+000.390,+00.5441,-00.0749,+00.3850,-00.299,-00.057,-10.279,-00.000602,+00.001344,-00.000651*69\r\n'"
2023/03/05/23:40:32.548265,0,1678077624,147241353,imu1_frame,0,0,0,,0.004157611829690377,-0.014136946105829891,0.05300637990096112,0.9984854454164412,"(0.0, 0.0, 0.0, 0.0, 0.0, 0.0, 0.0, 0.0, 0.0)",0.000491,-0.001894,0.000332,"(0.0, 0.0, 0.0, 0.0, 0.0, 0.0, 0.0, 0.0, 0.0)",-0.299,-0.08,-10.257,"(0.0, 0.0, 0.0, 0.0, 0.0, 0.0, 0.0, 0.0, 0.0)",0,0,0,,0.5419,-0.076,0.3862,"(0.0, 0.0, 0.0, 0.0, 0.0, 0.0, 0.0, 0.0, 0.0)","b'$VNYMR,+006.072,-001.643,+000.390,+00.5419,-00.0760,+00.3862,-00.299,-00.080,-10.257,+00.000491,-00.001894,+00.000332*61\r\n'"
2023/03/05/23:40:32.596196,0,1678077624,147241353,imu1_frame,0,0,0,,0.0041832904017719075,-0.014126844922888498,0.05300672672823659,0.9984854627161565,"(0.0, 0.0, 0.0, 0.0, 0.0, 0.0, 0.0, 0.0, 0.0)",0.000122,-0.001268,-0.00088,"(0.0, 0.0, 0.0, 0.0, 0.0, 0.0, 0.0, 0.0, 0.0)",-0.29,-0.099,-10.266,"(0.0, 0.0, 0.0, 0.0, 0.0, 0.0, 0.0, 0.0, 0.0)",0,0,0,,0.543,-0.0725,0.3824,"(0.0, 0.0, 0.0, 0.0, 0.0, 0.0, 0.0, 0.0, 0.0)","b'$VNYMR,+006.072,-001.642,+000.393,+00.5430,-00.0725,+00.3824,-00.290,-00.099,-10.266,+00.000122,-00.001268,-00.000880*68\r\n'"
2023/03/05/23:40:32.596223,0,1678077624,147241353,imu1_frame,0,0,0,,0.004201055624003818,-0.01413466991440322,0.05299828326143717,0.9984857255912051,"(0.0, 0.0, 0.0, 0.0, 0.0, 0.0, 0.0, 0.0, 0.0)",-0.000436,0.000871,-0.000164,"(0.0, 0.0, 0.0, 0.0, 0.0, 0.0, 0.0, 0.0, 0.0)",-0.31,-0.074,-10.247,"(0.0, 0.0, 0.0, 0.0, 0.0, 0.0, 0.0, 0.0, 0.0)",0,0,0,,0.5408,-0.0724,0.3861,"(0.0, 0.0, 0.0, 0.0, 0.0, 0.0, 0.0, 0.0, 0.0)","b'$VNYMR,+006.071,-001.643,+000.395,+00.5408,-00.0724,+00.3861,-00.310,-00.074,-10.247,-00.000436,+00.000871,-00.000164*6E\r\n'"
2023/03/05/23:40:32.640328,0,1678077624,147241353,imu1_frame,0,0,0,,0.004201178972108197,-0.014134633252738664,0.05300699669114191,0.9984852630559151,"(0.0, 0.0, 0.0, 0.0, 0.0, 0.0, 0.0, 0.0, 0.0)",0.00098,-0.001799,-0.000292,"(0.0, 0.0, 0.0, 0.0, 0.0, 0.0, 0.0, 0.0, 0.0)",-0.3,-0.058,-10.228,"(0.0, 0.0, 0.0, 0.0, 0.0, 0.0, 0.0, 0.0, 0.0)",0,0,0,,0.5419,-0.0737,0.3849,"(0.0, 0.0, 0.0, 0.0, 0.0, 0.0, 0.0, 0.0, 0.0)","b'$VNYMR,+006.072,-001.643,+000.395,+00.5419,-00.0737,+00.3849,-00.300,-00.058,-10.228,+00.000980,-00.001799,-00.000292*61\r\n'"
2023/03/05/23:40:32.640363,0,1678077624,147241353,imu1_frame,0,0,0,,0.004183135332024699,-0.014135740934372315,0.05296318279510964,0.9984876481335372,"(0.0, 0.0, 0.0, 0.0, 0.0, 0.0, 0.0, 0.0, 0.0)",-8e-05,-0.002094,9e-06,"(0.0, 0.0, 0.0, 0.0, 0.0, 0.0, 0.0, 0.0, 0.0)",-0.284,-0.072,-10.286,"(0.0, 0.0, 0.0, 0.0, 0.0, 0.0, 0.0, 0.0, 0.0)",0,0,0,,0.5419,-0.0737,0.3836,"(0.0, 0.0, 0.0, 0.0, 0.0, 0.0, 0.0, 0.0, 0.0)","b'$VNYMR,+006.067,-001.643,+000.393,+00.5419,-00.0737,+00.3836,-00.284,-00.072,-10.286,-00.000080,-00.002094,+00.000009*6A\r\n'"
2023/03/05/23:40:32.684244,0,1678077624,147241353,imu1_frame,0,0,0,,0.004182550716167412,-0.014127063940096857,0.05295444607902692,0.9984882367731742,"(0.0, 0.0, 0.0, 0.0, 0.0, 0.0, 0.0, 0.0, 0.0)",0.001178,-0.001467,-0.001625,"(0.0, 0.0, 0.0, 0.0, 0.0, 0.0, 0.0, 0.0, 0.0)",-0.263,-0.059,-10.275,"(0.0, 0.0, 0.0, 0.0, 0.0, 0.0, 0.0, 0.0, 0.0)",0,0,0,,0.5419,-0.0713,0.3836,"(0.0, 0.0, 0.0, 0.0, 0.0, 0.0, 0.0, 0.0, 0.0)","b'$VNYMR,+006.066,-001.642,+000.393,+00.5419,-00.0713,+00.3836,-00.263,-00.059,-10.275,+00.001178,-00.001467,-00.001625*65\r\n'"
2023/03/05/23:40:32.684271,0,1678077624,147241353,imu1_frame,0,0,0,,0.004191387447342492,-0.014126565248622429,0.052963282810201996,0.9984877380816998,"(0.0, 0.0, 0.0, 0.0, 0.0, 0.0, 0.0, 0.0, 0.0)",0.001353,0.000506,-0.000339,"(0.0, 0.0, 0.0, 0.0, 0.0, 0.0, 0.0, 0.0, 0.0)",-0.29,-0.091,-10.3,"(0.0, 0.0, 0.0, 0.0, 0.0, 0.0, 0.0, 0.0, 0.0)",0,0,0,,0.5408,-0.0736,0.3861,"(0.0, 0.0, 0.0, 0.0, 0.0, 0.0, 0.0, 0.0, 0.0)","b'$VNYMR,+006.067,-001.642,+000.394,+00.5408,-00.0736,+00.3861,-00.290,-00.091,-10.300,+00.001353,+00.000506,-00.000339*6E\r\n'"
2023/03/05/23:40:32.728173,0,1678077624,147241353,imu1_frame,0,0,0,,0.004199977622803613,-0.01412613970850758,0.052954692634740876,0.9984881636218147,"(0.0, 0.0, 0.0, 0.0, 0.0, 0.0, 0.0, 0.0, 0.0)",0.000878,-0.000833,4.5e-05,"(0.0, 0.0, 0.0, 0.0, 0.0, 0.0, 0.0, 0.0, 0.0)",-0.311,-0.079,-10.277,"(0.0, 0.0, 0.0, 0.0, 0.0, 0.0, 0.0, 0.0, 0.0)",0,0,0,,0.5419,-0.0772,0.3849,"(0.0, 0.0, 0.0, 0.0, 0.0, 0.0, 0.0, 0.0, 0.0)","b'$VNYMR,+006.066,-001.642,+000.395,+00.5419,-00.0772,+00.3849,-00.311,-00.079,-10.277,+00.000878,-00.000833,+00.000045*6B\r\n'"
2023/03/05/23:40:32.730193,0,1678077624,147241353,imu1_frame,0,0,0,,0.004209028984426548,-0.014134427820211948,0.05294612594664268,0.9984884625134361,"(0.0, 0.0, 0.0, 0.0, 0.0, 0.0, 0.0, 0.0, 0.0)",6.9e-05,0.000609,-0.000168,"(0.0, 0.0, 0.0, 0.0, 0.0, 0.0, 0.0, 0.0, 0.0)",-0.302,-0.075,-10.24,"(0.0, 0.0, 0.0, 0.0, 0.0, 0.0, 0.0, 0.0, 0.0)",0,0,0,,0.5396,-0.0713,0.386,"(0.0, 0.0, 0.0, 0.0, 0.0, 0.0, 0.0, 0.0, 0.0)","b'$VNYMR,+006.065,-001.643,+000.396,+00.5396,-00.0713,+00.3860,-00.302,-00.075,-10.240,+00.000069,+00.000609,-00.000168*6D\r\n'"
2023/03/05/23:40:32.772157,0,1678077624,147241353,imu1_frame,0,0,0,,0.004199854348819436,-0.01412617635968871,0.05294597917972593,0.9984886257006654,"(0.0, 0.0, 0.0, 0.0, 0.0, 0.0, 0.0, 0.0, 0.0)",0.000301,-0.000803,-4.1e-05,"(0.0, 0.0, 0.0, 0.0, 0.0, 0.0, 0.0, 0.0, 0.0)",-0.284,-0.057,-10.307,"(0.0, 0.0, 0.0, 0.0, 0.0, 0.0, 0.0, 0.0, 0.0)",0,0,0,,0.5418,-0.0784,0.3837,"(0.0, 0.0, 0.0, 0.0, 0.0, 0.0, 0.0, 0.0, 0.0)","b'$VNYMR,+006.065,-001.642,+000.395,+00.5418,-00.0784,+00.3837,-00.284,-00.057,-10.307,+00.000301,-00.000803,-00.000041*6A\r\n'"
2023/03/05/23:40:32.816166,0,1678077624,147241353,imu1_frame,0,0,0,,0.0041897573468822535,-0.014100497886626713,0.0529457858512453,0.9984890413286054,"(0.0, 0.0, 0.0, 0.0, 0.0, 0.0, 0.0, 0.0, 0.0)",0.000465,0.001109,-0.000839,"(0.0, 0.0, 0.0, 0.0, 0.0, 0.0, 0.0, 0.0, 0.0)",-0.271,-0.053,-10.3,"(0.0, 0.0, 0.0, 0.0, 0.0, 0.0, 0.0, 0.0, 0.0)",0,0,0,,0.5441,-0.0737,0.3799,"(0.0, 0.0, 0.0, 0.0, 0.0, 0.0, 0.0, 0.0, 0.0)","b'$VNYMR,+006.065,-001.639,+000.394,+00.5441,-00.0737,+00.3799,-00.271,-00.053,-10.300,+00.000465,+00.001109,-00.000839*67\r\n'"
2023/03/05/23:40:32.816198,0,1678077624,147241353,imu1_frame,0,0,0,,0.004198255565593063,-0.014091249069313395,0.05296331237922402,0.9984882066863351,"(0.0, 0.0, 0.0, 0.0, 0.0, 0.0, 0.0, 0.0, 0.0)",0.000465,0.001125,0.000393,"(0.0, 0.0, 0.0, 0.0, 0.0, 0.0, 0.0, 0.0, 0.0)",-0.3,-0.084,-10.272,"(0.0, 0.0, 0.0, 0.0, 0.0, 0.0, 0.0, 0.0, 0.0)",0,0,0,,0.543,-0.069,0.3861,"(0.0, 0.0, 0.0, 0.0, 0.0, 0.0, 0.0, 0.0, 0.0)","b'$VNYMR,+006.067,-001.638,+000.395,+00.5430,-00.0690,+00.3861,-00.300,-00.084,-10.272,+00.000465,+00.001125,+00.000393*6D\r\n'"
2023/03/05/23:40:32.864288,0,1678077624,147241353,imu1_frame,0,0,0,,0.0041904647803388964,-0.014109138256894522,0.05296323611709843,0.9984879908354317,"(0.0, 0.0, 0.0, 0.0, 0.0, 0.0, 0.0, 0.0, 0.0)",-0.000843,0.000873,-0.000796,"(0.0, 0.0, 0.0, 0.0, 0.0, 0.0, 0.0, 0.0, 0.0)",-0.32,-0.043,-10.315,"(0.0, 0.0, 0.0, 0.0, 0.0, 0.0, 0.0, 0.0, 0.0)",0,0,0,,0.543,-0.0737,0.3875,"(0.0, 0.0, 0.0, 0.0, 0.0, 0.0, 0.0, 0.0, 0.0)","b'$VNYMR,+006.067,-001.640,+000.394,+00.5430,-00.0737,+00.3875,-00.320,-00.043,-10.315,-00.000843,+00.000873,-00.000796*61\r\n'"
2023/03/05/23:40:32.864340,0,1678077624,147241353,imu1_frame,0,0,0,,0.004208691075642275,-0.014125677591099273,0.05295481590654877,0.998488126932076,"(0.0, 0.0, 0.0, 0.0, 0.0, 0.0, 0.0, 0.0, 0.0)",0.000619,0.001351,0.000866,"(0.0, 0.0, 0.0, 0.0, 0.0, 0.0, 0.0, 0.0, 0.0)",-0.309,-0.075,-10.251,"(0.0, 0.0, 0.0, 0.0, 0.0, 0.0, 0.0, 0.0, 0.0)",0,0,0,,0.5419,-0.0783,0.3875,"(0.0, 0.0, 0.0, 0.0, 0.0, 0.0, 0.0, 0.0, 0.0)","b'$VNYMR,+006.066,-001.642,+000.396,+00.5419,-00.0783,+00.3875,-00.309,-00.075,-10.251,+00.000619,+00.001351,+00.000866*60\r\n'"
2023/03/05/23:40:32.912165,0,1678077624,147241353,imu1_frame,0,0,0,,0.004216820084287782,-0.014116538773112199,0.052946202145089556,0.9984886786738523,"(0.0, 0.0, 0.0, 0.0, 0.0, 0.0, 0.0, 0.0, 0.0)",-0.000492,0.001937,-0.000852,"(0.0, 0.0, 0.0, 0.0, 0.0, 0.0, 0.0, 0.0, 0.0)",-0.298,-0.076,-10.31,"(0.0, 0.0, 0.0, 0.0, 0.0, 0.0, 0.0, 0.0, 0.0)",0,0,0,,0.5441,-0.0772,0.3838,"(0.0, 0.0, 0.0, 0.0, 0.0, 0.0, 0.0, 0.0, 0.0)","b'$VNYMR,+006.065,-001.641,+000.397,+00.5441,-00.0772,+00.3838,-00.298,-00.076,-10.310,-00.000492,+00.001937,-00.000852*69\r\n'"
2023/03/05/23:40:32.912192,0,1678077624,147241353,imu1_frame,0,0,0,,0.004207891682681468,-0.014108213871892868,0.05296348235994886,0.9984879175459457,"(0.0, 0.0, 0.0, 0.0, 0.0, 0.0, 0.0, 0.0, 0.0)",6e-05,0.002332,-0.000297,"(0.0, 0.0, 0.0, 0.0, 0.0, 0.0, 0.0, 0.0, 0.0)",-0.29,-0.07,-10.286,"(0.0, 0.0, 0.0, 0.0, 0.0, 0.0, 0.0, 0.0, 0.0)",0,0,0,,0.543,-0.0749,0.3799,"(0.0, 0.0, 0.0, 0.0, 0.0, 0.0, 0.0, 0.0, 0.0)","b'$VNYMR,+006.067,-001.640,+000.396,+00.5430,-00.0749,+00.3799,-00.290,-00.070,-10.286,+00.000060,+00.002332,-00.000297*61\r\n'"
2023/03/05/23:40:32.960124,0,1678077624,147241353,imu1_frame,0,0,0,,0.004199055110084969,-0.014108712709136705,0.052954645787352365,0.9984884163831895,"(0.0, 0.0, 0.0, 0.0, 0.0, 0.0, 0.0, 0.0, 0.0)",-2.1e-05,-0.000495,-0.000206,"(0.0, 0.0, 0.0, 0.0, 0.0, 0.0, 0.0, 0.0, 0.0)",-0.3,-0.06,-10.256,"(0.0, 0.0, 0.0, 0.0, 0.0, 0.0, 0.0, 0.0, 0.0)",0,0,0,,0.5441,-0.0784,0.3825,"(0.0, 0.0, 0.0, 0.0, 0.0, 0.0, 0.0, 0.0, 0.0)","b'$VNYMR,+006.066,-001.640,+000.395,+00.5441,-00.0784,+00.3825,-00.300,-00.060,-10.256,-00.000021,-00.000495,-00.000206*6D\r\n'"
2023/03/05/23:40:32.960159,0,1678077624,147241353,imu1_frame,0,0,0,,0.00419948452494792,-0.01412628630677747,0.052919838790491336,0.9984900114809822,"(0.0, 0.0, 0.0, 0.0, 0.0, 0.0, 0.0, 0.0, 0.0)",-0.000926,0.001763,0.001947,"(0.0, 0.0, 0.0, 0.0, 0.0, 0.0, 0.0, 0.0, 0.0)",-0.303,-0.073,-10.255,"(0.0, 0.0, 0.0, 0.0, 0.0, 0.0, 0.0, 0.0, 0.0)",0,0,0,,0.5407,-0.0737,0.3773,"(0.0, 0.0, 0.0, 0.0, 0.0, 0.0, 0.0, 0.0, 0.0)","b'$VNYMR,+006.062,-001.642,+000.395,+00.5407,-00.0737,+00.3773,-00.303,-00.073,-10.255,-00.000926,+00.001763,+00.001947*65\r\n'"
2023/03/05/23:40:33.004122,0,1678077624,147241353,imu1_frame,0,0,0,,0.004199945476668748,-0.01413499982094515,0.05291986221255198,0.9984898849870535,"(0.0, 0.0, 0.0, 0.0, 0.0, 0.0, 0.0, 0.0, 0.0)",-0.000664,0.00306,0.00141,"(0.0, 0.0, 0.0, 0.0, 0.0, 0.0, 0.0, 0.0, 0.0)",-0.317,-0.071,-10.276,"(0.0, 0.0, 0.0, 0.0, 0.0, 0.0, 0.0, 0.0, 0.0)",0,0,0,,0.5419,-0.076,0.3811,"(0.0, 0.0, 0.0, 0.0, 0.0, 0.0, 0.0, 0.0, 0.0)","b'$VNYMR,+006.062,-001.643,+000.395,+00.5419,-00.0760,+00.3811,-00.317,-00.071,-10.276,-00.000664,+00.003060,+00.001410*64\r\n'"
2023/03/05/23:40:33.004939,0,1678077624,147241353,imu1_frame,0,0,0,,0.004208905638114608,-0.014134464550380794,0.05293741248901973,0.9984889245175285,"(0.0, 0.0, 0.0, 0.0, 0.0, 0.0, 0.0, 0.0, 0.0)",0.00011,0.001303,0.000657,"(0.0, 0.0, 0.0, 0.0, 0.0, 0.0, 0.0, 0.0, 0.0)",-0.286,-0.088,-10.261,"(0.0, 0.0, 0.0, 0.0, 0.0, 0.0, 0.0, 0.0, 0.0)",0,0,0,,0.5408,-0.0713,0.381,"(0.0, 0.0, 0.0, 0.0, 0.0, 0.0, 0.0, 0.0, 0.0)","b'$VNYMR,+006.064,-001.643,+000.396,+00.5408,-00.0713,+00.3810,-00.286,-00.088,-10.261,+00.000110,+00.001303,+00.000657*6B\r\n'"
2023/03/05/23:40:33.048214,0,1678077624,147241353,imu1_frame,0,0,0,,0.004225994718470467,-0.014124790232354335,0.052946348984013875,0.998488515406559,"(0.0, 0.0, 0.0, 0.0, 0.0, 0.0, 0.0, 0.0, 0.0)",-0.000522,0.000302,0.00072,"(0.0, 0.0, 0.0, 0.0, 0.0, 0.0, 0.0, 0.0, 0.0)",-0.271,-0.093,-10.284,"(0.0, 0.0, 0.0, 0.0, 0.0, 0.0, 0.0, 0.0, 0.0)",0,0,0,,0.5407,-0.0749,0.376,"(0.0, 0.0, 0.0, 0.0, 0.0, 0.0, 0.0, 0.0, 0.0)","b'$VNYMR,+006.065,-001.642,+000.398,+00.5407,-00.0749,+00.3760,-00.271,-00.093,-10.284,-00.000522,+00.000302,+00.000720*66\r\n'"
2023/03/05/23:40:33.092278,0,1678077624,147241353,imu1_frame,0,0,0,,0.0042260858792877885,-0.014133614377348351,0.05292023224784655,0.9984897746905609,"(0.0, 0.0, 0.0, 0.0, 0.0, 0.0, 0.0, 0.0, 0.0)",-0.000378,0.000615,-0.00084,"(0.0, 0.0, 0.0, 0.0, 0.0, 0.0, 0.0, 0.0, 0.0)",-0.317,-0.074,-10.249,"(0.0, 0.0, 0.0, 0.0, 0.0, 0.0, 0.0, 0.0, 0.0)",0,0,0,,0.5419,-0.0678,0.3823,"(0.0, 0.0, 0.0, 0.0, 0.0, 0.0, 0.0, 0.0, 0.0)","b'$VNYMR,+006.062,-001.643,+000.398,+00.5419,-00.0678,+00.3823,-00.317,-00.074,-10.249,-00.000378,+00.000615,-00.000840*68\r\n'"
2023/03/05/23:40:33.092319,0,1678077624,147241353,imu1_frame,0,0,0,,0.004217339682199797,-0.014142936927180785,0.0528852785795555,0.9984915316068741,"(0.0, 0.0, 0.0, 0.0, 0.0, 0.0, 0.0, 0.0, 0.0)",-0.000304,0.000478,-0.001345,"(0.0, 0.0, 0.0, 0.0, 0.0, 0.0, 0.0, 0.0, 0.0)",-0.29,-0.072,-10.263,"(0.0, 0.0, 0.0, 0.0, 0.0, 0.0, 0.0, 0.0, 0.0)",0,0,0,,0.5441,-0.0749,0.3812,"(0.0, 0.0, 0.0, 0.0, 0.0, 0.0, 0.0, 0.0, 0.0)","b'$VNYMR,+006.058,-001.644,+000.397,+00.5441,-00.0749,+00.3812,-00.290,-00.072,-10.263,-00.000304,+00.000478,-00.001345*68\r\n'"
2023/03/05/23:40:33.140229,0,1678077624,147241353,imu1_frame,0,0,0,,0.004226727313755809,-0.014159976241876909,0.05286802231923539,0.9984921642482215,"(0.0, 0.0, 0.0, 0.0, 0.0, 0.0, 0.0, 0.0, 0.0)",7.3e-05,-0.000368,0.000657,"(0.0, 0.0, 0.0, 0.0, 0.0, 0.0, 0.0, 0.0, 0.0)",-0.291,-0.067,-10.276,"(0.0, 0.0, 0.0, 0.0, 0.0, 0.0, 0.0, 0.0, 0.0)",0,0,0,,0.543,-0.0772,0.385,"(0.0, 0.0, 0.0, 0.0, 0.0, 0.0, 0.0, 0.0, 0.0)","b'$VNYMR,+006.056,-001.646,+000.398,+00.5430,-00.0772,+00.3850,-00.291,-00.067,-10.276,+00.000073,-00.000368,+00.000657*66\r\n'"
2023/03/05/23:40:33.140258,0,1678077624,147241353,imu1_frame,0,0,0,,0.004226974451319454,-0.014159902469412015,0.05288544928700373,0.9984912413750839,"(0.0, 0.0, 0.0, 0.0, 0.0, 0.0, 0.0, 0.0, 0.0)",0.000451,-0.00235,7.3e-05,"(0.0, 0.0, 0.0, 0.0, 0.0, 0.0, 0.0, 0.0, 0.0)",-0.308,-0.085,-10.273,"(0.0, 0.0, 0.0, 0.0, 0.0, 0.0, 0.0, 0.0, 0.0)",0,0,0,,0.5441,-0.0713,0.3837,"(0.0, 0.0, 0.0, 0.0, 0.0, 0.0, 0.0, 0.0, 0.0)","b'$VNYMR,+006.058,-001.646,+000.398,+00.5441,-00.0713,+00.3837,-00.308,-00.085,-10.273,+00.000451,-00.002350,+00.000073*6D\r\n'"
2023/03/05/23:40:33.188142,0,1678077624,147241353,imu1_frame,0,0,0,,0.004235564366421807,-0.014159477919075715,0.05287685937190138,0.9984916659254203,"(0.0, 0.0, 0.0, 0.0, 0.0, 0.0, 0.0, 0.0, 0.0)",0.000397,-0.003133,-0.000538,"(0.0, 0.0, 0.0, 0.0, 0.0, 0.0, 0.0, 0.0, 0.0)",-0.311,-0.072,-10.247,"(0.0, 0.0, 0.0, 0.0, 0.0, 0.0, 0.0, 0.0, 0.0)",0,0,0,,0.5419,-0.0725,0.3798,"(0.0, 0.0, 0.0, 0.0, 0.0, 0.0, 0.0, 0.0, 0.0)","b'$VNYMR,+006.057,-001.646,+000.399,+00.5419,-00.0725,+00.3798,-00.311,-00.072,-10.247,+00.000397,-00.003133,-00.000538*61\r\n'"
2023/03/05/23:40:33.188168,0,1678077624,147241353,imu1_frame,0,0,0,,0.004244154288932651,-0.01415905351866178,0.052868269449390534,0.9984920903258343,"(0.0, 0.0, 0.0, 0.0, 0.0, 0.0, 0.0, 0.0, 0.0)",0.000436,-0.002468,-0.000351,"(0.0, 0.0, 0.0, 0.0, 0.0, 0.0, 0.0, 0.0, 0.0)",-0.304,-0.078,-10.204,"(0.0, 0.0, 0.0, 0.0, 0.0, 0.0, 0.0, 0.0, 0.0)",0,0,0,,0.5419,-0.0702,0.381,"(0.0, 0.0, 0.0, 0.0, 0.0, 0.0, 0.0, 0.0, 0.0)","b'$VNYMR,+006.056,-001.646,+000.400,+00.5419,-00.0702,+00.3810,-00.304,-00.078,-10.204,+00.000436,-00.002468,-00.000351*6B\r\n'"
2023/03/05/23:40:33.236141,0,1678077624,147241353,imu1_frame,0,0,0,,0.0042351936707052664,-0.014159588801039137,0.05285071890309757,0.9984930498961836,"(0.0, 0.0, 0.0, 0.0, 0.0, 0.0, 0.0, 0.0, 0.0)",-0.000631,0.000232,-0.000639,"(0.0, 0.0, 0.0, 0.0, 0.0, 0.0, 0.0, 0.0, 0.0)",-0.323,-0.041,-10.265,"(0.0, 0.0, 0.0, 0.0, 0.0, 0.0, 0.0, 0.0, 0.0)",0,0,0,,0.5441,-0.0772,0.3863,"(0.0, 0.0, 0.0, 0.0, 0.0, 0.0, 0.0, 0.0, 0.0)","b'$VNYMR,+006.054,-001.646,+000.399,+00.5441,-00.0772,+00.3863,-00.323,-00.041,-10.265,-00.000631,+00.000232,-00.000639*6D\r\n'"
2023/03/05/23:40:33.236164,0,1678077624,147241353,imu1_frame,0,0,0,,0.004217979718424443,-0.014169298379338455,0.0528330683320731,0.9984939191207679,"(0.0, 0.0, 0.0, 0.0, 0.0, 0.0, 0.0, 0.0, 0.0)",-0.001215,-0.000497,-0.001163,"(0.0, 0.0, 0.0, 0.0, 0.0, 0.0, 0.0, 0.0, 0.0)",-0.32,-0.074,-10.276,"(0.0, 0.0, 0.0, 0.0, 0.0, 0.0, 0.0, 0.0, 0.0)",0,0,0,,0.5408,-0.0666,0.3822,"(0.0, 0.0, 0.0, 0.0, 0.0, 0.0, 0.0, 0.0, 0.0)","b'$VNYMR,+006.052,-001.647,+000.397,+00.5408,-00.0666,+00.3822,-00.320,-00.074,-10.276,-00.001215,-00.000497,-00.001163*6A\r\n'"
2023/03/05/23:40:33.280206,0,1678077624,147241353,imu1_frame,0,0,0,,0.004217643104849268,-0.014160548024357986,0.05284175826530715,0.9984935848315304,"(0.0, 0.0, 0.0, 0.0, 0.0, 0.0, 0.0, 0.0, 0.0)",0.000541,-0.001856,-8.4e-05,"(0.0, 0.0, 0.0, 0.0, 0.0, 0.0, 0.0, 0.0, 0.0)",-0.272,-0.08,-10.281,"(0.0, 0.0, 0.0, 0.0, 0.0, 0.0, 0.0, 0.0, 0.0)",0,0,0,,0.5407,-0.0772,0.3836,"(0.0, 0.0, 0.0, 0.0, 0.0, 0.0, 0.0, 0.0, 0.0)","b'$VNYMR,+006.053,-001.646,+000.397,+00.5407,-00.0772,+00.3836,-00.272,-00.080,-10.281,+00.000541,-00.001856,-00.000084*69\r\n'"
2023/03/05/23:40:33.280776,0,1678077624,147241353,imu1_frame,0,0,0,,0.004217643104849268,-0.014160548024357986,0.05284175826530715,0.9984935848315304,"(0.0, 0.0, 0.0, 0.0, 0.0, 0.0, 0.0, 0.0, 0.0)",0.000209,-0.001945,0.000291,"(0.0, 0.0, 0.0, 0.0, 0.0, 0.0, 0.0, 0.0, 0.0)",-0.301,-0.061,-10.295,"(0.0, 0.0, 0.0, 0.0, 0.0, 0.0, 0.0, 0.0, 0.0)",0,0,0,,0.5419,-0.0737,0.3836,"(0.0, 0.0, 0.0, 0.0, 0.0, 0.0, 0.0, 0.0, 0.0)","b'$VNYMR,+006.053,-001.646,+000.397,+00.5419,-00.0737,+00.3836,-00.301,-00.061,-10.295,+00.000209,-00.001945,+00.000291*60\r\n'"
2023/03/05/23:40:33.328143,0,1678077624,147241353,imu1_frame,0,0,0,,0.004227277130199706,-0.014177513982243655,0.052841929121402495,0.9984932942949976,"(0.0, 0.0, 0.0, 0.0, 0.0, 0.0, 0.0, 0.0, 0.0)",0.00135,-0.001854,0.000507,"(0.0, 0.0, 0.0, 0.0, 0.0, 0.0, 0.0, 0.0, 0.0)",-0.297,-0.081,-10.272,"(0.0, 0.0, 0.0, 0.0, 0.0, 0.0, 0.0, 0.0, 0.0)",0,0,0,,0.5419,-0.0748,0.3849,"(0.0, 0.0, 0.0, 0.0, 0.0, 0.0, 0.0, 0.0, 0.0)","b'$VNYMR,+006.053,-001.648,+000.398,+00.5419,-00.0748,+00.3849,-00.297,-00.081,-10.272,+00.001350,-00.001854,+00.000507*6D\r\n'"
2023/03/05/23:40:33.376141,0,1678077624,147241353,imu1_frame,0,0,0,,0.004236238063416151,-0.014176978914737863,0.052859479828390614,0.9984923349471408,"(0.0, 0.0, 0.0, 0.0, 0.0, 0.0, 0.0, 0.0, 0.0)",0.000817,-0.000504,-0.000814,"(0.0, 0.0, 0.0, 0.0, 0.0, 0.0, 0.0, 0.0, 0.0)",-0.283,-0.061,-10.25,"(0.0, 0.0, 0.0, 0.0, 0.0, 0.0, 0.0, 0.0, 0.0)",0,0,0,,0.543,-0.0737,0.3837,"(0.0, 0.0, 0.0, 0.0, 0.0, 0.0, 0.0, 0.0, 0.0)","b'$VNYMR,+006.055,-001.648,+000.399,+00.5430,-00.0737,+00.3837,-00.283,-00.061,-10.250,+00.000817,-00.000504,-00.000814*62\r\n'"
2023/03/05/23:40:33.376180,0,1678077624,147241353,imu1_frame,0,0,0,,0.004226603744491156,-0.01416001312649184,0.05285930882931167,0.998492625570731,"(0.0, 0.0, 0.0, 0.0, 0.0, 0.0, 0.0, 0.0, 0.0)",0.000401,-0.000462,8.9e-05,"(0.0, 0.0, 0.0, 0.0, 0.0, 0.0, 0.0, 0.0, 0.0)",-0.303,-0.077,-10.283,"(0.0, 0.0, 0.0, 0.0, 0.0, 0.0, 0.0, 0.0, 0.0)",0,0,0,,0.5418,-0.0772,0.3811,"(0.0, 0.0, 0.0, 0.0, 0.0, 0.0, 0.0, 0.0, 0.0)","b'$VNYMR,+006.055,-001.646,+000.398,+00.5418,-00.0772,+00.3811,-00.303,-00.077,-10.283,+00.000401,-00.000462,+00.000089*62\r\n'"
2023/03/05/23:40:33.424154,0,1678077624,147241353,imu1_frame,0,0,0,,0.004227098019618427,-0.01415986558156206,0.05289416276484705,0.998490779824456,"(0.0, 0.0, 0.0, 0.0, 0.0, 0.0, 0.0, 0.0, 0.0)",-0.000168,-0.001055,0.001215,"(0.0, 0.0, 0.0, 0.0, 0.0, 0.0, 0.0, 0.0, 0.0)",-0.282,-0.056,-10.262,"(0.0, 0.0, 0.0, 0.0, 0.0, 0.0, 0.0, 0.0, 0.0)",0,0,0,,0.5419,-0.0725,0.3836,"(0.0, 0.0, 0.0, 0.0, 0.0, 0.0, 0.0, 0.0, 0.0)","b'$VNYMR,+006.059,-001.646,+000.398,+00.5419,-00.0725,+00.3836,-00.282,-00.056,-10.262,-00.000168,-00.001055,+00.001215*67\r\n'"
2023/03/05/23:40:33.424191,0,1678077624,147241353,imu1_frame,0,0,0,,0.004208996471512337,-0.014143288251337673,0.05291129558713994,0.9984901834997842,"(0.0, 0.0, 0.0, 0.0, 0.0, 0.0, 0.0, 0.0, 0.0)",0.000742,-0.000318,0.001106,"(0.0, 0.0, 0.0, 0.0, 0.0, 0.0, 0.0, 0.0, 0.0)",-0.296,-0.061,-10.289,"(0.0, 0.0, 0.0, 0.0, 0.0, 0.0, 0.0, 0.0, 0.0)",0,0,0,,0.5407,-0.076,0.3811,"(0.0, 0.0, 0.0, 0.0, 0.0, 0.0, 0.0, 0.0, 0.0)","b'$VNYMR,+006.061,-001.644,+000.396,+00.5407,-00.0760,+00.3811,-00.296,-00.061,-10.289,+00.000742,-00.000318,+00.001106*6D\r\n'"
2023/03/05/23:40:33.468225,0,1678077624,147241353,imu1_frame,0,0,0,,0.0042260858792877885,-0.014133614377348351,0.05292023224784655,0.9984897746905609,"(0.0, 0.0, 0.0, 0.0, 0.0, 0.0, 0.0, 0.0, 0.0)",0.001018,-0.001523,0.000604,"(0.0, 0.0, 0.0, 0.0, 0.0, 0.0, 0.0, 0.0, 0.0)",-0.304,-0.066,-10.272,"(0.0, 0.0, 0.0, 0.0, 0.0, 0.0, 0.0, 0.0, 0.0)",0,0,0,,0.543,-0.0713,0.3824,"(0.0, 0.0, 0.0, 0.0, 0.0, 0.0, 0.0, 0.0, 0.0)","b'$VNYMR,+006.062,-001.643,+000.398,+00.5430,-00.0713,+00.3824,-00.304,-00.066,-10.272,+00.001018,-00.001523,+00.000604*6A\r\n'"
2023/03/05/23:40:33.468250,0,1678077624,147241353,imu1_frame,0,0,0,,0.0042185412998143055,-0.014151429591962417,0.05293758296524651,0.9984886345169899,"(0.0, 0.0, 0.0, 0.0, 0.0, 0.0, 0.0, 0.0, 0.0)",-0.000373,-0.002434,0.000476,"(0.0, 0.0, 0.0, 0.0, 0.0, 0.0, 0.0, 0.0, 0.0)",-0.3,-0.08,-10.319,"(0.0, 0.0, 0.0, 0.0, 0.0, 0.0, 0.0, 0.0, 0.0)",0,0,0,,0.543,-0.0725,0.3824,"(0.0, 0.0, 0.0, 0.0, 0.0, 0.0, 0.0, 0.0, 0.0)","b'$VNYMR,+006.064,-001.645,+000.397,+00.5430,-00.0725,+00.3824,-00.300,-00.080,-10.319,-00.000373,-00.002434,+00.000476*6A\r\n'"
2023/03/05/23:40:33.516186,0,1678077624,147241353,imu1_frame,0,0,0,,0.004226670242306871,-0.014142291005705958,0.05292896935793448,0.9984891862541525,"(0.0, 0.0, 0.0, 0.0, 0.0, 0.0, 0.0, 0.0, 0.0)",-0.000426,0.002558,0.000584,"(0.0, 0.0, 0.0, 0.0, 0.0, 0.0, 0.0, 0.0, 0.0)",-0.305,-0.082,-10.306,"(0.0, 0.0, 0.0, 0.0, 0.0, 0.0, 0.0, 0.0, 0.0)",0,0,0,,0.543,-0.0737,0.3824,"(0.0, 0.0, 0.0, 0.0, 0.0, 0.0, 0.0, 0.0, 0.0)","b'$VNYMR,+006.063,-001.644,+000.398,+00.5430,-00.0737,+00.3824,-00.305,-00.082,-10.306,-00.000426,+00.002558,+00.000584*6F\r\n'"
2023/03/05/23:40:33.516227,0,1678077624,147241353,imu1_frame,0,0,0,,0.0042260858792877885,-0.014133614377348351,0.05292023224784655,0.9984897746905609,"(0.0, 0.0, 0.0, 0.0, 0.0, 0.0, 0.0, 0.0, 0.0)",0.0001,0.000745,0.000554,"(0.0, 0.0, 0.0, 0.0, 0.0, 0.0, 0.0, 0.0, 0.0)",-0.294,-0.058,-10.283,"(0.0, 0.0, 0.0, 0.0, 0.0, 0.0, 0.0, 0.0, 0.0)",0,0,0,,0.5442,-0.0702,0.3837,"(0.0, 0.0, 0.0, 0.0, 0.0, 0.0, 0.0, 0.0, 0.0)","b'$VNYMR,+006.062,-001.643,+000.398,+00.5442,-00.0702,+00.3837,-00.294,-00.058,-10.283,+00.000100,+00.000745,+00.000554*6C\r\n'"
2023/03/05/23:40:33.560095,0,1678077624,147241353,imu1_frame,0,0,0,,0.0042172490688253276,-0.014134112995936003,0.05291139543738408,0.9984902733091487,"(0.0, 0.0, 0.0, 0.0, 0.0, 0.0, 0.0, 0.0, 0.0)",0.000177,0.000562,0.000368,"(0.0, 0.0, 0.0, 0.0, 0.0, 0.0, 0.0, 0.0, 0.0)",-0.302,-0.07,-10.279,"(0.0, 0.0, 0.0, 0.0, 0.0, 0.0, 0.0, 0.0, 0.0)",0,0,0,,0.543,-0.076,0.385,"(0.0, 0.0, 0.0, 0.0, 0.0, 0.0, 0.0, 0.0, 0.0)","b'$VNYMR,+006.061,-001.643,+000.397,+00.5430,-00.0760,+00.3850,-00.302,-00.070,-10.279,+00.000177,+00.000562,+00.000368*6F\r\n'"
2023/03/05/23:40:33.560121,0,1678077624,147241353,imu1_frame,0,0,0,,0.00419948452494792,-0.01412628630677747,0.052919838790491336,0.9984900114809822,"(0.0, 0.0, 0.0, 0.0, 0.0, 0.0, 0.0, 0.0, 0.0)",0.000326,0.00157,-4.7e-05,"(0.0, 0.0, 0.0, 0.0, 0.0, 0.0, 0.0, 0.0, 0.0)",-0.314,-0.057,-10.308,"(0.0, 0.0, 0.0, 0.0, 0.0, 0.0, 0.0, 0.0, 0.0)",0,0,0,,0.5419,-0.076,0.3811,"(0.0, 0.0, 0.0, 0.0, 0.0, 0.0, 0.0, 0.0, 0.0)","b'$VNYMR,+006.062,-001.642,+000.395,+00.5419,-00.0760,+00.3811,-00.314,-00.057,-10.308,+00.000326,+00.001570,-00.000047*68\r\n'"
2023/03/05/23:40:33.604173,0,1678077624,147241353,imu1_frame,0,0,0,,0.004200068827652146,-0.014134963168968442,0.05292857567855727,0.9984894231361162,"(0.0, 0.0, 0.0, 0.0, 0.0, 0.0, 0.0, 0.0, 0.0)",-0.000807,0.001113,-0.000209,"(0.0, 0.0, 0.0, 0.0, 0.0, 0.0, 0.0, 0.0, 0.0)",-0.327,-0.067,-10.297,"(0.0, 0.0, 0.0, 0.0, 0.0, 0.0, 0.0, 0.0, 0.0)",0,0,0,,0.5418,-0.0796,0.3761,"(0.0, 0.0, 0.0, 0.0, 0.0, 0.0, 0.0, 0.0, 0.0)","b'$VNYMR,+006.063,-001.643,+000.395,+00.5418,-00.0796,+00.3761,-00.327,-00.067,-10.297,-00.000807,+00.001113,-00.000209*6B\r\n'"
2023/03/05/23:40:33.604834,0,1678077624,147241353,imu1_frame,0,0,0,,0.004200315528659374,-0.014134889861785715,0.05294600259847497,0.9984884992061236,"(0.0, 0.0, 0.0, 0.0, 0.0, 0.0, 0.0, 0.0, 0.0)",-0.000916,0.003447,-3.7e-05,"(0.0, 0.0, 0.0, 0.0, 0.0, 0.0, 0.0, 0.0, 0.0)",-0.301,-0.071,-10.282,"(0.0, 0.0, 0.0, 0.0, 0.0, 0.0, 0.0, 0.0, 0.0)",0,0,0,,0.5419,-0.0666,0.3797,"(0.0, 0.0, 0.0, 0.0, 0.0, 0.0, 0.0, 0.0, 0.0)","b'$VNYMR,+006.065,-001.643,+000.395,+00.5419,-00.0666,+00.3797,-00.301,-00.071,-10.282,-00.000916,+00.003447,-00.000037*64\r\n'"
2023/03/05/23:40:33.648216,0,1678077624,147241353,imu1_frame,0,0,0,,0.004199945476668748,-0.01413499982094515,0.05291986221255198,0.9984898849870535,"(0.0, 0.0, 0.0, 0.0, 0.0, 0.0, 0.0, 0.0, 0.0)",4.3e-05,0.001798,-0.000421,"(0.0, 0.0, 0.0, 0.0, 0.0, 0.0, 0.0, 0.0, 0.0)",-0.304,-0.094,-10.294,"(0.0, 0.0, 0.0, 0.0, 0.0, 0.0, 0.0, 0.0, 0.0)",0,0,0,,0.5385,-0.0724,0.386,"(0.0, 0.0, 0.0, 0.0, 0.0, 0.0, 0.0, 0.0, 0.0)","b'$VNYMR,+006.062,-001.643,+000.395,+00.5385,-00.0724,+00.3860,-00.304,-00.094,-10.294,+00.000043,+00.001798,-00.000421*67\r\n'"
2023/03/05/23:40:33.696120,0,1678077624,147241353,imu1_frame,0,0,0,,0.004199945476668748,-0.01413499982094515,0.05291986221255198,0.9984898849870535,"(0.0, 0.0, 0.0, 0.0, 0.0, 0.0, 0.0, 0.0, 0.0)",5.4e-05,0.001604,-0.000407,"(0.0, 0.0, 0.0, 0.0, 0.0, 0.0, 0.0, 0.0, 0.0)",-0.301,-0.085,-10.256,"(0.0, 0.0, 0.0, 0.0, 0.0, 0.0, 0.0, 0.0, 0.0)",0,0,0,,0.543,-0.0784,0.38,"(0.0, 0.0, 0.0, 0.0, 0.0, 0.0, 0.0, 0.0, 0.0)","b'$VNYMR,+006.062,-001.643,+000.395,+00.5430,-00.0784,+00.3800,-00.301,-00.085,-10.256,+00.000054,+00.001604,-00.000407*6F\r\n'"
2023/03/05/23:40:33.696152,0,1678077624,147241353,imu1_frame,0,0,0,,0.004191602072572326,-0.01413535190228305,0.05294587924627519,0.9984885358227718,"(0.0, 0.0, 0.0, 0.0, 0.0, 0.0, 0.0, 0.0, 0.0)",-0.000402,0.004418,0.000566,"(0.0, 0.0, 0.0, 0.0, 0.0, 0.0, 0.0, 0.0, 0.0)",-0.298,-0.058,-10.329,"(0.0, 0.0, 0.0, 0.0, 0.0, 0.0, 0.0, 0.0, 0.0)",0,0,0,,0.543,-0.0678,0.3823,"(0.0, 0.0, 0.0, 0.0, 0.0, 0.0, 0.0, 0.0, 0.0)","b'$VNYMR,+006.065,-001.643,+000.394,+00.5430,-00.0678,+00.3823,-00.298,-00.058,-10.329,-00.000402,+00.004418,+00.000566*69\r\n'"
2023/03/05/23:40:33.740250,0,1678077624,147241353,imu1_frame,0,0,0,,0.004192186683292741,-0.014144028820315943,0.05295461603807864,0.9984879471780329,"(0.0, 0.0, 0.0, 0.0, 0.0, 0.0, 0.0, 0.0, 0.0)",7.8e-05,0.002254,0.000671,"(0.0, 0.0, 0.0, 0.0, 0.0, 0.0, 0.0, 0.0, 0.0)",-0.325,-0.054,-10.256,"(0.0, 0.0, 0.0, 0.0, 0.0, 0.0, 0.0, 0.0, 0.0)",0,0,0,,0.5441,-0.0773,0.3775,"(0.0, 0.0, 0.0, 0.0, 0.0, 0.0, 0.0, 0.0, 0.0)","b'$VNYMR,+006.066,-001.644,+000.394,+00.5441,-00.0773,+00.3775,-00.325,-00.054,-10.256,+00.000078,+00.002254,+00.000671*6D\r\n'"
2023/03/05/23:40:33.740302,0,1678077624,147241353,imu1_frame,0,0,0,,0.00419252443350225,-0.01415277890365506,0.052945925919597785,0.9984882826136194,"(0.0, 0.0, 0.0, 0.0, 0.0, 0.0, 0.0, 0.0, 0.0)",-0.000556,0.000901,0.001509,"(0.0, 0.0, 0.0, 0.0, 0.0, 0.0, 0.0, 0.0, 0.0)",-0.306,-0.084,-10.263,"(0.0, 0.0, 0.0, 0.0, 0.0, 0.0, 0.0, 0.0, 0.0)",0,0,0,,0.5407,-0.0772,0.3836,"(0.0, 0.0, 0.0, 0.0, 0.0, 0.0, 0.0, 0.0, 0.0)","b'$VNYMR,+006.065,-001.645,+000.394,+00.5407,-00.0772,+00.3836,-00.306,-00.084,-10.263,-00.000556,+00.000901,+00.001509*65\r\n'"
2023/03/05/23:40:33.784181,0,1678077624,147241353,imu1_frame,0,0,0,,0.004183810979305626,-0.014153240943482562,0.052945802411286665,0.9984883191622774,"(0.0, 0.0, 0.0, 0.0, 0.0, 0.0, 0.0, 0.0, 0.0)",-0.000636,0.001436,-0.000248,"(0.0, 0.0, 0.0, 0.0, 0.0, 0.0, 0.0, 0.0, 0.0)",-0.291,-0.074,-10.274,"(0.0, 0.0, 0.0, 0.0, 0.0, 0.0, 0.0, 0.0, 0.0)",0,0,0,,0.5419,-0.076,0.3824,"(0.0, 0.0, 0.0, 0.0, 0.0, 0.0, 0.0, 0.0, 0.0)","b'$VNYMR,+006.065,-001.645,+000.393,+00.5419,-00.0760,+00.3824,-00.291,-00.074,-10.274,-00.000636,+00.001436,-00.000248*63\r\n'"
2023/03/05/23:40:33.784207,0,1678077624,147241353,imu1_frame,0,0,0,,0.004192433542526633,-0.014143955650701208,0.05297204293223203,0.9984870227935506,"(0.0, 0.0, 0.0, 0.0, 0.0, 0.0, 0.0, 0.0, 0.0)",-0.001905,-4.5e-05,0.000812,"(0.0, 0.0, 0.0, 0.0, 0.0, 0.0, 0.0, 0.0, 0.0)",-0.283,-0.073,-10.271,"(0.0, 0.0, 0.0, 0.0, 0.0, 0.0, 0.0, 0.0, 0.0)",0,0,0,,0.5396,-0.0713,0.381,"(0.0, 0.0, 0.0, 0.0, 0.0, 0.0, 0.0, 0.0, 0.0)","b'$VNYMR,+006.068,-001.644,+000.394,+00.5396,-00.0713,+00.3810,-00.283,-00.073,-10.271,-00.001905,-00.000045,+00.000812*60\r\n'"
2023/03/05/23:40:33.828268,0,1678077624,147241353,imu1_frame,0,0,0,,0.00420157548779718,-0.014161067027817704,0.05293735937590212,0.9984885812698914,"(0.0, 0.0, 0.0, 0.0, 0.0, 0.0, 0.0, 0.0, 0.0)",0.000135,0.000283,0.001335,"(0.0, 0.0, 0.0, 0.0, 0.0, 0.0, 0.0, 0.0, 0.0)",-0.302,-0.057,-10.272,"(0.0, 0.0, 0.0, 0.0, 0.0, 0.0, 0.0, 0.0, 0.0)",0,0,0,,0.5396,-0.0749,0.3734,"(0.0, 0.0, 0.0, 0.0, 0.0, 0.0, 0.0, 0.0, 0.0)","b'$VNYMR,+006.064,-001.646,+000.395,+00.5396,-00.0749,+00.3734,-00.302,-00.057,-10.272,+00.000135,+00.000283,+00.001335*69\r\n'"
2023/03/05/23:40:33.830709,0,1678077624,147241353,imu1_frame,0,0,0,,0.004210074839007637,-0.014151818081471717,0.05295488637550488,0.998487747207644,"(0.0, 0.0, 0.0, 0.0, 0.0, 0.0, 0.0, 0.0, 0.0)",0.000264,-0.000524,0.000379,"(0.0, 0.0, 0.0, 0.0, 0.0, 0.0, 0.0, 0.0, 0.0)",-0.292,-0.093,-10.231,"(0.0, 0.0, 0.0, 0.0, 0.0, 0.0, 0.0, 0.0, 0.0)",0,0,0,,0.543,-0.076,0.3812,"(0.0, 0.0, 0.0, 0.0, 0.0, 0.0, 0.0, 0.0, 0.0)","b'$VNYMR,+006.066,-001.645,+000.396,+00.5430,-00.0760,+00.3812,-00.292,-00.093,-10.231,+00.000264,-00.000524,+00.000379*65\r\n'"
2023/03/05/23:40:33.872146,0,1678077624,147241353,imu1_frame,0,0,0,,0.004200990882213682,-0.014152390186028032,0.052928622508378605,0.998489169919732,"(0.0, 0.0, 0.0, 0.0, 0.0, 0.0, 0.0, 0.0, 0.0)",-0.001375,6.2e-05,8.4e-05,"(0.0, 0.0, 0.0, 0.0, 0.0, 0.0, 0.0, 0.0, 0.0)",-0.299,-0.07,-10.246,"(0.0, 0.0, 0.0, 0.0, 0.0, 0.0, 0.0, 0.0, 0.0)",0,0,0,,0.5419,-0.0713,0.3836,"(0.0, 0.0, 0.0, 0.0, 0.0, 0.0, 0.0, 0.0, 0.0)","b'$VNYMR,+006.063,-001.645,+000.395,+00.5419,-00.0713,+00.3836,-00.299,-00.070,-10.246,-00.001375,+00.000062,+00.000084*6A\r\n'"
2023/03/05/23:40:33.916155,0,1678077624,147241353,imu1_frame,0,0,0,,0.004199945476668748,-0.01413499982094515,0.05291986221255198,0.9984898849870535,"(0.0, 0.0, 0.0, 0.0, 0.0, 0.0, 0.0, 0.0, 0.0)",-0.000197,-0.000214,0.000489,"(0.0, 0.0, 0.0, 0.0, 0.0, 0.0, 0.0, 0.0, 0.0)",-0.286,-0.072,-10.256,"(0.0, 0.0, 0.0, 0.0, 0.0, 0.0, 0.0, 0.0, 0.0)",0,0,0,,0.543,-0.0749,0.3837,"(0.0, 0.0, 0.0, 0.0, 0.0, 0.0, 0.0, 0.0, 0.0)","b'$VNYMR,+006.062,-001.643,+000.395,+00.5430,-00.0749,+00.3837,-00.286,-00.072,-10.256,-00.000197,-00.000214,+00.000489*66\r\n'"
2023/03/05/23:40:33.916178,0,1678077624,147241353,imu1_frame,0,0,0,,0.004208412249661675,-0.014134611460292138,0.052902558618220435,0.9984907717735049,"(0.0, 0.0, 0.0, 0.0, 0.0, 0.0, 0.0, 0.0, 0.0)",-0.000563,-0.000918,0.000454,"(0.0, 0.0, 0.0, 0.0, 0.0, 0.0, 0.0, 0.0, 0.0)",-0.297,-0.096,-10.256,"(0.0, 0.0, 0.0, 0.0, 0.0, 0.0, 0.0, 0.0, 0.0)",0,0,0,,0.5419,-0.0737,0.3849,"(0.0, 0.0, 0.0, 0.0, 0.0, 0.0, 0.0, 0.0, 0.0)","b'$VNYMR,+006.060,-001.643,+000.396,+00.5419,-00.0737,+00.3849,-00.297,-00.096,-10.256,-00.000563,-00.000918,+00.000454*6E\r\n'"
2023/03/05/23:40:33.960216,0,1678077624,147241353,imu1_frame,0,0,0,,0.004209547490962213,-0.014160825492471748,0.05288520214202897,0.9984913149976267,"(0.0, 0.0, 0.0, 0.0, 0.0, 0.0, 0.0, 0.0, 0.0)",-0.000867,-0.001529,0.000444,"(0.0, 0.0, 0.0, 0.0, 0.0, 0.0, 0.0, 0.0, 0.0)",-0.32,-0.086,-10.274,"(0.0, 0.0, 0.0, 0.0, 0.0, 0.0, 0.0, 0.0, 0.0)",0,0,0,,0.5419,-0.0713,0.3823,"(0.0, 0.0, 0.0, 0.0, 0.0, 0.0, 0.0, 0.0, 0.0)","b'$VNYMR,+006.058,-001.646,+000.396,+00.5419,-00.0713,+00.3823,-00.320,-00.086,-10.274,-00.000867,-00.001529,+00.000444*61\r\n'"
2023/03/05/23:40:33.960243,0,1678077624,147241353,imu1_frame,0,0,0,,0.004209794643350693,-0.014160752019851197,0.05290262909497249,0.9984903918246449,"(0.0, 0.0, 0.0, 0.0, 0.0, 0.0, 0.0, 0.0, 0.0)",0.000582,-0.000288,-0.000128,"(0.0, 0.0, 0.0, 0.0, 0.0, 0.0, 0.0, 0.0, 0.0)",-0.311,-0.081,-10.306,"(0.0, 0.0, 0.0, 0.0, 0.0, 0.0, 0.0, 0.0, 0.0)",0,0,0,,0.543,-0.076,0.385,"(0.0, 0.0, 0.0, 0.0, 0.0, 0.0, 0.0, 0.0, 0.0)","b'$VNYMR,+006.060,-001.646,+000.396,+00.5430,-00.0760,+00.3850,-00.311,-00.081,-10.306,+00.000582,-00.000288,-00.000128*64\r\n'"
2023/03/05/23:40:34.004108,0,1678077624,147241353,imu1_frame,0,0,0,,0.004192153913180273,-0.01415288865883797,0.052919785539345204,0.9984896683925419,"(0.0, 0.0, 0.0, 0.0, 0.0, 0.0, 0.0, 0.0, 0.0)",0.000324,-0.000558,-0.000236,"(0.0, 0.0, 0.0, 0.0, 0.0, 0.0, 0.0, 0.0, 0.0)",-0.282,-0.074,-10.252,"(0.0, 0.0, 0.0, 0.0, 0.0, 0.0, 0.0, 0.0, 0.0)",0,0,0,,0.5418,-0.0772,0.3799,"(0.0, 0.0, 0.0, 0.0, 0.0, 0.0, 0.0, 0.0, 0.0)","b'$VNYMR,+006.062,-001.645,+000.394,+00.5418,-00.0772,+00.3799,-00.282,-00.074,-10.252,+00.000324,-00.000558,-00.000236*69\r\n'"
2023/03/05/23:40:34.004904,0,1678077624,147241353,imu1_frame,0,0,0,,0.004191478718196912,-0.014135388480373363,0.052937165788012504,0.9984889978247112,"(0.0, 0.0, 0.0, 0.0, 0.0, 0.0, 0.0, 0.0, 0.0)",-0.000433,-0.00094,-0.000898,"(0.0, 0.0, 0.0, 0.0, 0.0, 0.0, 0.0, 0.0, 0.0)",-0.306,-0.072,-10.279,"(0.0, 0.0, 0.0, 0.0, 0.0, 0.0, 0.0, 0.0, 0.0)",0,0,0,,0.543,-0.0713,0.3836,"(0.0, 0.0, 0.0, 0.0, 0.0, 0.0, 0.0, 0.0, 0.0)","b'$VNYMR,+006.064,-001.643,+000.394,+00.5430,-00.0713,+00.3836,-00.306,-00.072,-10.279,-00.000433,-00.000940,-00.000898*60\r\n'"
2023/03/05/23:40:34.048236,0,1678077624,147241353,imu1_frame,0,0,0,,0.00418220531813317,-0.014153715490704486,0.05283252716419256,0.9984943192477012,"(0.0, 0.0, 0.0, 0.0, 0.0, 0.0, 0.0, 0.0, 0.0)",0.000401,-0.001024,0.000459,"(0.0, 0.0, 0.0, 0.0, 0.0, 0.0, 0.0, 0.0, 0.0)",-0.31,-0.082,-10.296,"(0.0, 0.0, 0.0, 0.0, 0.0, 0.0, 0.0, 0.0, 0.0)",0,0,0,,0.5453,-0.0678,0.3824,"(0.0, 0.0, 0.0, 0.0, 0.0, 0.0, 0.0, 0.0, 0.0)","b'$VNYMR,+006.052,-001.645,+000.393,+00.5453,-00.0678,+00.3824,-00.310,-00.082,-10.296,+00.000401,-00.001024,+00.000459*6D\r\n'"
2023/03/05/23:40:34.092173,0,1678077624,147241353,imu1_frame,0,0,0,,0.004183125702962183,-0.014171142592698301,0.052832573698066626,0.9984940657477185,"(0.0, 0.0, 0.0, 0.0, 0.0, 0.0, 0.0, 0.0, 0.0)",-0.000932,-0.00278,2.5e-05,"(0.0, 0.0, 0.0, 0.0, 0.0, 0.0, 0.0, 0.0, 0.0)",-0.312,-0.087,-10.253,"(0.0, 0.0, 0.0, 0.0, 0.0, 0.0, 0.0, 0.0, 0.0)",0,0,0,,0.5441,-0.0784,0.3876,"(0.0, 0.0, 0.0, 0.0, 0.0, 0.0, 0.0, 0.0, 0.0)","b'$VNYMR,+006.052,-001.647,+000.393,+00.5441,-00.0784,+00.3876,-00.312,-00.087,-10.253,-00.000932,-00.002780,+00.000025*69\r\n'"
2023/03/05/23:40:34.092213,0,1678077624,147241353,imu1_frame,0,0,0,,0.004192299398136816,-0.01417939509015217,0.052832720699545366,0.9984939023369737,"(0.0, 0.0, 0.0, 0.0, 0.0, 0.0, 0.0, 0.0, 0.0)",0.000263,0.001956,-0.000464,"(0.0, 0.0, 0.0, 0.0, 0.0, 0.0, 0.0, 0.0, 0.0)",-0.322,-0.091,-10.271,"(0.0, 0.0, 0.0, 0.0, 0.0, 0.0, 0.0, 0.0, 0.0)",0,0,0,,0.543,-0.0772,0.3825,"(0.0, 0.0, 0.0, 0.0, 0.0, 0.0, 0.0, 0.0, 0.0)","b'$VNYMR,+006.052,-001.648,+000.394,+00.5430,-00.0772,+00.3825,-00.322,-00.091,-10.271,+00.000263,+00.001956,-00.000464*62\r\n'"
2023/03/05/23:40:34.136130,0,1678077624,147241353,imu1_frame,0,0,0,,0.004183957121230835,-0.014179746611194793,0.05285873745105217,0.9984925553873353,"(0.0, 0.0, 0.0, 0.0, 0.0, 0.0, 0.0, 0.0, 0.0)",0.00028,-0.000207,0.000401,"(0.0, 0.0, 0.0, 0.0, 0.0, 0.0, 0.0, 0.0, 0.0)",-0.313,-0.074,-10.287,"(0.0, 0.0, 0.0, 0.0, 0.0, 0.0, 0.0, 0.0, 0.0)",0,0,0,,0.543,-0.0749,0.3824,"(0.0, 0.0, 0.0, 0.0, 0.0, 0.0, 0.0, 0.0, 0.0)","b'$VNYMR,+006.055,-001.648,+000.393,+00.5430,-00.0749,+00.3824,-00.313,-00.074,-10.287,+00.000280,-00.000207,+00.000401*6B\r\n'"
2023/03/05/23:40:34.136166,0,1678077624,147241353,imu1_frame,0,0,0,,0.004184204603859033,-0.01417967358520757,0.05287616442564862,0.9984916326762493,"(0.0, 0.0, 0.0, 0.0, 0.0, 0.0, 0.0, 0.0, 0.0)",0.000858,-0.000713,-3.1e-05,"(0.0, 0.0, 0.0, 0.0, 0.0, 0.0, 0.0, 0.0, 0.0)",-0.282,-0.067,-10.285,"(0.0, 0.0, 0.0, 0.0, 0.0, 0.0, 0.0, 0.0, 0.0)",0,0,0,,0.5441,-0.0749,0.3774,"(0.0, 0.0, 0.0, 0.0, 0.0, 0.0, 0.0, 0.0, 0.0)","b'$VNYMR,+006.057,-001.648,+000.393,+00.5441,-00.0749,+00.3774,-00.282,-00.067,-10.285,+00.000858,-00.000713,-00.000031*62\r\n'"
2023/03/05/23:40:34.180135,0,1678077624,147241353,imu1_frame,0,0,0,,0.0041761993348417015,-0.014188775658395854,0.05289349081485012,0.9984906192017283,"(0.0, 0.0, 0.0, 0.0, 0.0, 0.0, 0.0, 0.0, 0.0)",6.1e-05,-0.001541,0.000107,"(0.0, 0.0, 0.0, 0.0, 0.0, 0.0, 0.0, 0.0, 0.0)",-0.314,-0.069,-10.238,"(0.0, 0.0, 0.0, 0.0, 0.0, 0.0, 0.0, 0.0, 0.0)",0,0,0,,0.5419,-0.0737,0.3798,"(0.0, 0.0, 0.0, 0.0, 0.0, 0.0, 0.0, 0.0, 0.0)","b'$VNYMR,+006.059,-001.649,+000.392,+00.5419,-00.0737,+00.3798,-00.314,-00.069,-10.238,+00.000061,-00.001541,+00.000107*68\r\n'"
2023/03/05/23:40:34.180172,0,1678077624,147241353,imu1_frame,0,0,0,,0.004184699565291609,-0.01417952752027502,0.05291101832651515,0.9984897863416037,"(0.0, 0.0, 0.0, 0.0, 0.0, 0.0, 0.0, 0.0, 0.0)",-0.000528,7.8e-05,-0.000166,"(0.0, 0.0, 0.0, 0.0, 0.0, 0.0, 0.0, 0.0, 0.0)",-0.288,-0.085,-10.297,"(0.0, 0.0, 0.0, 0.0, 0.0, 0.0, 0.0, 0.0, 0.0)",0,0,0,,0.543,-0.0749,0.3799,"(0.0, 0.0, 0.0, 0.0, 0.0, 0.0, 0.0, 0.0, 0.0)","b'$VNYMR,+006.061,-001.648,+000.393,+00.5430,-00.0749,+00.3799,-00.288,-00.085,-10.297,-00.000528,+00.000078,-00.000166*64\r\n'"
2023/03/05/23:40:34.224192,0,1678077624,147241353,imu1_frame,0,0,0,,0.004193660503035837,-0.014178992592971016,0.05292856898984271,0.9984888261594725,"(0.0, 0.0, 0.0, 0.0, 0.0, 0.0, 0.0, 0.0, 0.0)",0.00068,-0.000614,0.000165,"(0.0, 0.0, 0.0, 0.0, 0.0, 0.0, 0.0, 0.0, 0.0)",-0.275,-0.09,-10.293,"(0.0, 0.0, 0.0, 0.0, 0.0, 0.0, 0.0, 0.0, 0.0)",0,0,0,,0.5407,-0.0748,0.3811,"(0.0, 0.0, 0.0, 0.0, 0.0, 0.0, 0.0, 0.0, 0.0)","b'$VNYMR,+006.063,-001.648,+000.394,+00.5407,-00.0748,+00.3811,-00.275,-00.090,-10.293,+00.000680,-00.000614,+00.000165*61\r\n'"
2023/03/05/23:40:34.229538,0,1678077624,147241353,imu1_frame,0,0,0,,0.0042101653695289344,-0.014160641802832358,0.052928769494170365,0.9984890064948767,"(0.0, 0.0, 0.0, 0.0, 0.0, 0.0, 0.0, 0.0, 0.0)",0.000763,-0.001543,0.000514,"(0.0, 0.0, 0.0, 0.0, 0.0, 0.0, 0.0, 0.0, 0.0)",-0.288,-0.071,-10.28,"(0.0, 0.0, 0.0, 0.0, 0.0, 0.0, 0.0, 0.0, 0.0)",0,0,0,,0.5396,-0.0737,0.3772,"(0.0, 0.0, 0.0, 0.0, 0.0, 0.0, 0.0, 0.0, 0.0)","b'$VNYMR,+006.063,-001.646,+000.396,+00.5396,-00.0737,+00.3772,-00.288,-00.071,-10.280,+00.000763,-00.001543,+00.000514*61\r\n'"
2023/03/05/23:40:34.272215,0,1678077624,147241353,imu1_frame,0,0,0,,0.004201665624891025,-0.014169890533833971,0.052911242394880514,0.9984898400266605,"(0.0, 0.0, 0.0, 0.0, 0.0, 0.0, 0.0, 0.0, 0.0)",-0.000777,-0.000341,0.000197,"(0.0, 0.0, 0.0, 0.0, 0.0, 0.0, 0.0, 0.0, 0.0)",-0.302,-0.079,-10.292,"(0.0, 0.0, 0.0, 0.0, 0.0, 0.0, 0.0, 0.0, 0.0)",0,0,0,,0.543,-0.0702,0.3811,"(0.0, 0.0, 0.0, 0.0, 0.0, 0.0, 0.0, 0.0, 0.0)","b'$VNYMR,+006.061,-001.647,+000.395,+00.5430,-00.0702,+00.3811,-00.302,-00.079,-10.292,-00.000777,-00.000341,+00.000197*67\r\n'"
2023/03/05/23:40:34.316110,0,1678077624,147241353,imu1_frame,0,0,0,,0.004192367697823521,-0.014161675342755014,0.052902381935167664,0.9984904651473435,"(0.0, 0.0, 0.0, 0.0, 0.0, 0.0, 0.0, 0.0, 0.0)",0.000336,-0.000905,-0.000364,"(0.0, 0.0, 0.0, 0.0, 0.0, 0.0, 0.0, 0.0, 0.0)",-0.298,-0.059,-10.329,"(0.0, 0.0, 0.0, 0.0, 0.0, 0.0, 0.0, 0.0, 0.0)",0,0,0,,0.5419,-0.069,0.3785,"(0.0, 0.0, 0.0, 0.0, 0.0, 0.0, 0.0, 0.0, 0.0)","b'$VNYMR,+006.060,-001.646,+000.394,+00.5419,-00.0690,+00.3785,-00.298,-00.059,-10.329,+00.000336,-00.000905,-00.000364*61\r\n'"
2023/03/05/23:40:34.316138,0,1678077624,147241353,imu1_frame,0,0,0,,0.00419128935458899,-0.014153144716541484,0.05285879117773427,0.9984928992153161,"(0.0, 0.0, 0.0, 0.0, 0.0, 0.0, 0.0, 0.0, 0.0)",0.000962,0.001131,0.00087,"(0.0, 0.0, 0.0, 0.0, 0.0, 0.0, 0.0, 0.0, 0.0)",-0.293,-0.077,-10.258,"(0.0, 0.0, 0.0, 0.0, 0.0, 0.0, 0.0, 0.0, 0.0)",0,0,0,,0.5441,-0.0749,0.38,"(0.0, 0.0, 0.0, 0.0, 0.0, 0.0, 0.0, 0.0, 0.0)","b'$VNYMR,+006.055,-001.645,+000.394,+00.5441,-00.0749,+00.3800,-00.293,-00.077,-10.258,+00.000962,+00.001131,+00.000870*65\r\n'"
